Time,header.seq,header.stamp.secs,header.stamp.nsecs,header.frame_id,orientation.x,orientation.y,orientation.z,orientation.w,orientation_covariance_0,orientation_covariance_1,orientation_covariance_2,orientation_covariance_3,orientation_covariance_4,orientation_covariance_5,orientation_covariance_6,orientation_covariance_7,orientation_covariance_8,angular_velocity.x,angular_velocity.y,angular_velocity.z,angular_velocity_covariance_0,angular_velocity_covariance_1,angular_velocity_covariance_2,angular_velocity_covariance_3,angular_velocity_covariance_4,angular_velocity_covariance_5,angular_velocity_covariance_6,angular_velocity_covariance_7,angular_velocity_covariance_8,linear_acceleration.x,linear_acceleration.y,linear_acceleration.z,linear_acceleration_covariance_0,linear_acceleration_covariance_1,linear_acceleration_covariance_2,linear_acceleration_covariance_3,linear_acceleration_covariance_4,linear_acceleration_covariance_5,linear_acceleration_covariance_6,linear_acceleration_covariance_7,linear_acceleration_covariance_8
1573857271.4930108,58468,674,304318020,/os1_imu,0.0,0.0,0.0,0.0,-1.0,-1.0,-1.0,-1.0,-1.0,-1.0,-1.0,-1.0,-1.0,0.009986854087797143,-0.004527373853134705,0.0195742340120824,0.0006,0.0,0.0,0.0,0.0006,0.0,0.0,0.0,0.0006,-0.23702596435546874,1.1156979736328125,8.379705810546875,0.01,0.0,0.0,0.0,0.01,0.0,0.0,0.0,0.01
1573857271.5082452,58469,674,314318050,/os1_imu,0.0,0.0,0.0,0.0,-1.0,-1.0,-1.0,-1.0,-1.0,-1.0,-1.0,-1.0,-1.0,0.008655273542757524,-0.01265001517787638,0.018375811521546742,0.0006,0.0,0.0,0.0,0.0006,0.0,0.0,0.0,0.0006,-0.42377369384765623,1.189918225097656,8.793902697753905,0.01,0.0,0.0,0.0,0.01,0.0,0.0,0.0,0.01
1573857271.5131092,58470,674,324318430,/os1_imu,0.0,0.0,0.0,0.0,-1.0,-1.0,-1.0,-1.0,-1.0,-1.0,-1.0,-1.0,-1.0,0.009321063815277333,-0.02090581455712202,0.012117382959860534,0.0006,0.0,0.0,0.0,0.0006,0.0,0.0,0.0,0.0006,-0.32561142578124996,1.1133037719726562,8.585607153320312,0.01,0.0,0.0,0.0,0.01,0.0,0.0,0.0,0.01
1573857271.5235205,58471,674,334318030,/os1_imu,0.0,0.0,0.0,0.0,-1.0,-1.0,-1.0,-1.0,-1.0,-1.0,-1.0,-1.0,-1.0,0.0055926382891664,-0.00905474770626941,0.013049489341388266,0.0006,0.0,0.0,0.0,0.0006,0.0,0.0,0.0,0.0006,-0.11731588134765625,1.1851298217773436,8.384494213867187,0.01,0.0,0.0,0.0,0.01,0.0,0.0,0.0,0.01
1573857271.5331712,58472,674,344318430,/os1_imu,0.0,0.0,0.0,0.0,-1.0,-1.0,-1.0,-1.0,-1.0,-1.0,-1.0,-1.0,-1.0,0.007190534943213943,0.004127899689622819,0.017044230976507122,0.0006,0.0,0.0,0.0,0.0006,0.0,0.0,0.0,0.0006,0.011971008300781249,1.3120225097656248,8.834604125976561,0.01,0.0,0.0,0.0,0.01,0.0,0.0,0.0,0.01
1573857271.5430043,58473,674,354318430,/os1_imu,0.0,0.0,0.0,0.0,-1.0,-1.0,-1.0,-1.0,-1.0,-1.0,-1.0,-1.0,-1.0,0.007856325215733753,0.008788431597261486,0.017710021249026934,0.0006,0.0,0.0,0.0,0.0006,0.0,0.0,0.0,0.0006,-0.023942016601562498,1.20667763671875,8.303091357421874,0.01,0.0,0.0,0.0,0.01,0.0,0.0,0.0,0.01
1573857271.5530992,58474,674,364318050,/os1_imu,0.0,0.0,0.0,0.0,-1.0,-1.0,-1.0,-1.0,-1.0,-1.0,-1.0,-1.0,-1.0,0.0035952674716069714,-0.0015978966540475428,0.016245282649483352,0.0006,0.0,0.0,0.0,0.0006,0.0,0.0,0.0,0.0006,-0.36631285400390623,1.3192051147460937,8.767566479492187,0.01,0.0,0.0,0.0,0.01,0.0,0.0,0.0,0.01
1573857271.570444,58475,674,374318040,/os1_imu,0.0,0.0,0.0,0.0,-1.0,-1.0,-1.0,-1.0,-1.0,-1.0,-1.0,-1.0,-1.0,0.003994741635118857,-0.013315805450396189,0.015579492376963544,0.0006,0.0,0.0,0.0,0.0006,0.0,0.0,0.0,0.0006,-0.37828386230468747,1.2521674682617188,8.465897070312499,0.01,0.0,0.0,0.0,0.01,0.0,0.0,0.0,0.01
1573857271.57314,58476,674,384318050,/os1_imu,0.0,0.0,0.0,0.0,-1.0,-1.0,-1.0,-1.0,-1.0,-1.0,-1.0,-1.0,-1.0,0.005858954398174323,-0.012117382959860534,0.015579492376963544,0.0006,0.0,0.0,0.0,0.0006,0.0,0.0,0.0,0.0006,-0.2154781494140625,1.2952630981445312,8.552088330078124,0.01,0.0,0.0,0.0,0.01,0.0,0.0,0.0,0.01
1573857271.58306,58477,674,394318390,/os1_imu,0.0,0.0,0.0,0.0,-1.0,-1.0,-1.0,-1.0,-1.0,-1.0,-1.0,-1.0,-1.0,0.005193164125654515,-0.0009321063815277333,0.017710021249026934,0.0006,0.0,0.0,0.0,0.0006,0.0,0.0,0.0,0.0006,-0.03591302490234375,1.4101847778320311,8.688557824707031,0.01,0.0,0.0,0.0,0.01,0.0,0.0,0.0,0.01
1573857271.5928957,58478,674,404318060,/os1_imu,0.0,0.0,0.0,0.0,-1.0,-1.0,-1.0,-1.0,-1.0,-1.0,-1.0,-1.0,-1.0,0.007590009106725828,-0.0029294771990871615,0.023968449810713145,0.0006,0.0,0.0,0.0,0.0006,0.0,0.0,0.0,0.0006,-0.25139117431640623,1.189918225097656,8.305485559082031,0.01,0.0,0.0,0.0,0.01,0.0,0.0,0.0,0.01
1573857271.6032727,58479,674,414318060,/os1_imu,0.0,0.0,0.0,0.0,-1.0,-1.0,-1.0,-1.0,-1.0,-1.0,-1.0,-1.0,-1.0,0.0073236929977179045,-0.008788431597261486,0.01744370514001901,0.0006,0.0,0.0,0.0,0.0006,0.0,0.0,0.0,0.0006,-0.36152445068359373,1.3527239379882812,8.700528833007812,0.01,0.0,0.0,0.0,0.01,0.0,0.0,0.0,0.01
1573857271.6132772,58480,674,424318010,/os1_imu,0.0,0.0,0.0,0.0,-1.0,-1.0,-1.0,-1.0,-1.0,-1.0,-1.0,-1.0,-1.0,0.004793689962142629,-0.017976337358034857,0.015180018213451656,0.0006,0.0,0.0,0.0,0.0006,0.0,0.0,0.0,0.0006,-0.2346317626953125,1.3096283081054687,8.480262280273436,0.01,0.0,0.0,0.0,0.01,0.0,0.0,0.0,0.01
1573857271.6230807,58481,674,434318050,/os1_imu,0.0,0.0,0.0,0.0,-1.0,-1.0,-1.0,-1.0,-1.0,-1.0,-1.0,-1.0,-1.0,0.0027963191445832,-0.016378440703987314,0.015712650431467506,0.0006,0.0,0.0,0.0,0.0006,0.0,0.0,0.0,0.0006,-0.11252747802734374,1.22583125,8.564059338378906,0.01,0.0,0.0,0.0,0.01,0.0,0.0,0.0,0.01
1573857271.632973,58482,674,444318150,/os1_imu,0.0,0.0,0.0,0.0,-1.0,-1.0,-1.0,-1.0,-1.0,-1.0,-1.0,-1.0,-1.0,0.005725796343670361,0.003994741635118857,0.02170476288414579,0.0006,0.0,0.0,0.0,0.0006,0.0,0.0,0.0,0.0006,-0.023942016601562498,1.2306196533203124,8.674192614746094,0.01,0.0,0.0,0.0,0.01,0.0,0.0,0.0,0.01
1573857271.643099,58483,674,454318430,/os1_imu,0.0,0.0,0.0,0.0,-1.0,-1.0,-1.0,-1.0,-1.0,-1.0,-1.0,-1.0,-1.0,0.0042610577441267805,0.007456851052221866,0.019973708175594285,0.0006,0.0,0.0,0.0,0.0006,0.0,0.0,0.0,0.0006,-0.24660277099609373,1.2593500732421874,8.465897070312499,0.01,0.0,0.0,0.0,0.01,0.0,0.0,0.0,0.01
1573857271.653612,58484,674,464318090,/os1_imu,0.0,0.0,0.0,0.0,-1.0,-1.0,-1.0,-1.0,-1.0,-1.0,-1.0,-1.0,-1.0,0.007456851052221866,-0.003062635253591124,0.02024002428460221,0.0006,0.0,0.0,0.0,0.0006,0.0,0.0,0.0,0.0006,-0.5099649536132812,1.3742717529296875,8.504204296874999,0.01,0.0,0.0,0.0,0.01,0.0,0.0,0.0,0.01
1573857271.6637793,58485,674,474318430,/os1_imu,0.0,0.0,0.0,0.0,-1.0,-1.0,-1.0,-1.0,-1.0,-1.0,-1.0,-1.0,-1.0,0.0042610577441267805,-0.015313176267955617,0.017576863194522972,0.0006,0.0,0.0,0.0,0.0006,0.0,0.0,0.0,0.0006,-0.3902548706054687,1.189918225097656,8.48505068359375,0.01,0.0,0.0,0.0,0.01,0.0,0.0,0.0,0.01
1573857271.6858091,58486,674,484318370,/os1_imu,0.0,0.0,0.0,0.0,-1.0,-1.0,-1.0,-1.0,-1.0,-1.0,-1.0,-1.0,-1.0,0.0005326322180158476,-0.015446334322459582,0.019707392066586362,0.0006,0.0,0.0,0.0,0.0006,0.0,0.0,0.0,0.0006,-0.05746083984375,1.3838485595703125,8.731653454589843,0.01,0.0,0.0,0.0,0.01,0.0,0.0,0.0,0.01
1573857271.686246,58487,674,494318120,/os1_imu,0.0,0.0,0.0,0.0,-1.0,-1.0,-1.0,-1.0,-1.0,-1.0,-1.0,-1.0,-1.0,0.00625842856168621,-0.004793689962142629,0.02503371424674484,0.0006,0.0,0.0,0.0,0.0006,0.0,0.0,0.0,0.0006,-0.0047884033203125,1.216254443359375,8.434772448730468,0.01,0.0,0.0,0.0,0.01,0.0,0.0,0.0,0.01
1573857271.6931877,58488,674,504318280,/os1_imu,0.0,0.0,0.0,0.0,-1.0,-1.0,-1.0,-1.0,-1.0,-1.0,-1.0,-1.0,-1.0,0.009986854087797143,-0.0014647385995435807,0.021971078993153714,0.0006,0.0,0.0,0.0,0.0006,0.0,0.0,0.0,0.0006,-0.2657563842773437,1.3072341064453123,8.501810095214843,0.01,0.0,0.0,0.0,0.01,0.0,0.0,0.0,0.01
1573857271.7034328,58489,674,514318010,/os1_imu,0.0,0.0,0.0,0.0,-1.0,-1.0,-1.0,-1.0,-1.0,-1.0,-1.0,-1.0,-1.0,0.007856325215733753,-0.007590009106725828,0.017976337358034857,0.0006,0.0,0.0,0.0,0.0006,0.0,0.0,0.0,0.0006,-0.4644751220703125,1.3455413330078123,8.635885388183594,0.01,0.0,0.0,0.0,0.01,0.0,0.0,0.0,0.01
1573857271.7133322,58490,674,524318330,/os1_imu,0.0,0.0,0.0,0.0,-1.0,-1.0,-1.0,-1.0,-1.0,-1.0,-1.0,-1.0,-1.0,0.005858954398174323,-0.02316950148368937,0.0195742340120824,0.0006,0.0,0.0,0.0,0.0006,0.0,0.0,0.0,0.0006,-0.1867477294921875,1.3718775512695311,8.576030346679687,0.01,0.0,0.0,0.0,0.01,0.0,0.0,0.0,0.01
1573857271.7230186,58491,674,534318270,/os1_imu,0.0,0.0,0.0,0.0,-1.0,-1.0,-1.0,-1.0,-1.0,-1.0,-1.0,-1.0,-1.0,0.0029294771990871615,-0.015046860158947694,0.0195742340120824,0.0006,0.0,0.0,0.0,0.0006,0.0,0.0,0.0,0.0006,0.06943184814453125,1.3311761230468748,8.755595471191405,0.01,0.0,0.0,0.0,0.01,0.0,0.0,0.0,0.01
1573857271.7331905,58492,674,544318430,/os1_imu,0.0,0.0,0.0,0.0,-1.0,-1.0,-1.0,-1.0,-1.0,-1.0,-1.0,-1.0,-1.0,0.008122641324741676,0.0055926382891664,0.02503371424674484,0.0006,0.0,0.0,0.0,0.0006,0.0,0.0,0.0,0.0006,0.12449848632812499,1.3383587280273437,8.499415893554687,0.01,0.0,0.0,0.0,0.01,0.0,0.0,0.0,0.01
1573857271.742922,58493,674,554318430,/os1_imu,0.0,0.0,0.0,0.0,-1.0,-1.0,-1.0,-1.0,-1.0,-1.0,-1.0,-1.0,-1.0,0.0021305288720633903,0.005326322180158476,0.02716424311880823,0.0006,0.0,0.0,0.0,0.0006,0.0,0.0,0.0,0.0006,-0.23223756103515625,1.388636962890625,8.628702783203124,0.01,0.0,0.0,0.0,0.01,0.0,0.0,0.0,0.01
1573857271.75311,58494,674,564318300,/os1_imu,0.0,0.0,0.0,0.0,-1.0,-1.0,-1.0,-1.0,-1.0,-1.0,-1.0,-1.0,-1.0,0.009454221869781294,-0.007190534943213943,0.022237395102161637,0.0006,0.0,0.0,0.0,0.0006,0.0,0.0,0.0,0.0006,-0.35673604736328124,1.3192051147460937,8.410830432128906,0.01,0.0,0.0,0.0,0.01,0.0,0.0,0.0,0.01
1573857271.7669964,58495,674,574318430,/os1_imu,0.0,0.0,0.0,0.0,-1.0,-1.0,-1.0,-1.0,-1.0,-1.0,-1.0,-1.0,-1.0,0.00625842856168621,-0.017710021249026934,0.019041601794066554,0.0006,0.0,0.0,0.0,0.0006,0.0,0.0,0.0,0.0006,-0.28969840087890625,1.3407529296874998,8.609549169921875,0.01,0.0,0.0,0.0,0.01,0.0,0.0,0.0,0.01
1573857271.773069,58496,674,584318160,/os1_imu,0.0,0.0,0.0,0.0,-1.0,-1.0,-1.0,-1.0,-1.0,-1.0,-1.0,-1.0,-1.0,0.0021305288720633903,-0.014381069886427886,0.02343581759269729,0.0006,0.0,0.0,0.0,0.0006,0.0,0.0,0.0,0.0006,-0.201112939453125,1.3335703247070312,8.789114294433594,0.01,0.0,0.0,0.0,0.01,0.0,0.0,0.0,0.01
1573857271.7832286,58497,674,594318070,/os1_imu,0.0,0.0,0.0,0.0,-1.0,-1.0,-1.0,-1.0,-1.0,-1.0,-1.0,-1.0,-1.0,0.005193164125654515,0.005193164125654515,0.02609897868277653,0.0006,0.0,0.0,0.0,0.0006,0.0,0.0,0.0,0.0006,-0.0718260498046875,1.35990654296875,8.468291271972657,0.01,0.0,0.0,0.0,0.01,0.0,0.0,0.0,0.01
1573857271.7928956,58498,674,604318360,/os1_imu,0.0,0.0,0.0,0.0,-1.0,-1.0,-1.0,-1.0,-1.0,-1.0,-1.0,-1.0,-1.0,0.00972053797878922,-0.0035952674716069714,0.031158984753927088,0.0006,0.0,0.0,0.0,0.0006,0.0,0.0,0.0,0.0006,-0.2657563842773437,1.4604630126953124,8.616731774902343,0.01,0.0,0.0,0.0,0.01,0.0,0.0,0.0,0.01
1573857271.8030722,58499,674,614318040,/os1_imu,0.0,0.0,0.0,0.0,-1.0,-1.0,-1.0,-1.0,-1.0,-1.0,-1.0,-1.0,-1.0,0.007057376888709981,-0.013981595722916,0.02356897564720126,0.0006,0.0,0.0,0.0,0.0006,0.0,0.0,0.0,0.0006,-0.36391865234375,1.3096283081054687,8.420407238769531,0.01,0.0,0.0,0.0,0.01,0.0,0.0,0.0,0.01
1573857271.813278,58500,674,624318120,/os1_imu,0.0,0.0,0.0,0.0,-1.0,-1.0,-1.0,-1.0,-1.0,-1.0,-1.0,-1.0,-1.0,-0.0,-0.013981595722916,0.02503371424674484,0.0006,0.0,0.0,0.0,0.0006,0.0,0.0,0.0,0.0006,-0.201112939453125,1.2689268798828124,8.712499841308594,0.01,0.0,0.0,0.0,0.01,0.0,0.0,0.0,0.01
1573857271.8230534,58501,674,634318430,/os1_imu,0.0,0.0,0.0,0.0,-1.0,-1.0,-1.0,-1.0,-1.0,-1.0,-1.0,-1.0,-1.0,0.0014647385995435807,-0.0049268480166465905,0.024900556192240877,0.0006,0.0,0.0,0.0,0.0006,0.0,0.0,0.0,0.0006,-0.02154781494140625,1.2473790649414063,8.468291271972657,0.01,0.0,0.0,0.0,0.01,0.0,0.0,0.0,0.01
1573857271.8332195,58502,674,644318030,/os1_imu,0.0,0.0,0.0,0.0,-1.0,-1.0,-1.0,-1.0,-1.0,-1.0,-1.0,-1.0,-1.0,0.002663161090079238,0.010519486305812991,0.027297401173312193,0.0006,0.0,0.0,0.0,0.0006,0.0,0.0,0.0,0.0006,-0.16041151123046873,1.3263877197265623,8.647856396484375,0.01,0.0,0.0,0.0,0.01,0.0,0.0,0.0,0.01
1573857271.8433254,58503,674,654318010,/os1_imu,0.0,0.0,0.0,0.0,-1.0,-1.0,-1.0,-1.0,-1.0,-1.0,-1.0,-1.0,-1.0,0.005992112452678286,0.0014647385995435807,0.030493194481407273,0.0006,0.0,0.0,0.0,0.0006,0.0,0.0,0.0,0.0006,-0.28490999755859375,1.3934253662109375,8.580818749999999,0.01,0.0,0.0,0.0,0.01,0.0,0.0,0.0,0.01
1573857271.8535926,58504,674,664318010,/os1_imu,0.0,0.0,0.0,0.0,-1.0,-1.0,-1.0,-1.0,-1.0,-1.0,-1.0,-1.0,-1.0,0.0049268480166465905,-0.012783173232380343,0.02676476895529634,0.0006,0.0,0.0,0.0,0.0006,0.0,0.0,0.0,0.0006,-0.3758896606445312,1.2378022583007813,8.489839086914062,0.01,0.0,0.0,0.0,0.01,0.0,0.0,0.0,0.01
1573857271.8837812,58505,674,674318430,/os1_imu,0.0,0.0,0.0,0.0,-1.0,-1.0,-1.0,-1.0,-1.0,-1.0,-1.0,-1.0,-1.0,-0.0,-0.018775285685058627,0.027031085064304263,0.0006,0.0,0.0,0.0,0.0006,0.0,0.0,0.0,0.0006,-0.41419688720703124,1.3455413330078123,8.839392529296875,0.01,0.0,0.0,0.0,0.01,0.0,0.0,0.0,0.01
1573857271.883793,58506,674,684318100,/os1_imu,0.0,0.0,0.0,0.0,-1.0,-1.0,-1.0,-1.0,-1.0,-1.0,-1.0,-1.0,-1.0,-0.0009321063815277333,-0.0007989483270237714,0.027963191445832,0.0006,0.0,0.0,0.0,0.0006,0.0,0.0,0.0,0.0006,-0.1005564697265625,1.3838485595703125,8.451531860351562,0.01,0.0,0.0,0.0,0.01,0.0,0.0,0.0,0.01
1573857271.883912,58507,674,694318070,/os1_imu,0.0,0.0,0.0,0.0,-1.0,-1.0,-1.0,-1.0,-1.0,-1.0,-1.0,-1.0,-1.0,-0.0002663161090079238,0.005459480234662438,0.031691616971942935,0.0006,0.0,0.0,0.0,0.0006,0.0,0.0,0.0,0.0006,-0.3184288208007812,1.407790576171875,8.647856396484375,0.01,0.0,0.0,0.0,0.01,0.0,0.0,0.0,0.01
1573857271.8933384,58508,674,704318090,/os1_imu,0.0,0.0,0.0,0.0,-1.0,-1.0,-1.0,-1.0,-1.0,-1.0,-1.0,-1.0,-1.0,0.0073236929977179045,-0.008788431597261486,0.03448793611652613,0.0006,0.0,0.0,0.0,0.0006,0.0,0.0,0.0,0.0006,-0.2753331909179687,1.3287819213867187,8.494627490234375,0.01,0.0,0.0,0.0,0.01,0.0,0.0,0.0,0.01
1573857271.903383,58509,674,714318290,/os1_imu,0.0,0.0,0.0,0.0,-1.0,-1.0,-1.0,-1.0,-1.0,-1.0,-1.0,-1.0,-1.0,0.0011984224905356572,-0.017576863194522972,0.028895297827359733,0.0006,0.0,0.0,0.0,0.0006,0.0,0.0,0.0,0.0006,-0.35194764404296874,1.2401964599609374,8.396465222167969,0.01,0.0,0.0,0.0,0.01,0.0,0.0,0.0,0.01
1573857271.9131484,58510,674,724318060,/os1_imu,0.0,0.0,0.0,0.0,-1.0,-1.0,-1.0,-1.0,-1.0,-1.0,-1.0,-1.0,-1.0,-0.0007989483270237714,-0.012250541014364496,0.029028455881863695,0.0006,0.0,0.0,0.0,0.0006,0.0,0.0,0.0,0.0006,-0.105344873046875,1.4341267944335936,8.801085302734375,0.01,0.0,0.0,0.0,0.01,0.0,0.0,0.0,0.01
1573857271.923149,58511,674,734318030,/os1_imu,0.0,0.0,0.0,0.0,-1.0,-1.0,-1.0,-1.0,-1.0,-1.0,-1.0,-1.0,-1.0,-0.0005326322180158476,0.0015978966540475428,0.026631610900792378,0.0006,0.0,0.0,0.0,0.0006,0.0,0.0,0.0,0.0006,-0.1149216796875,1.2425906616210938,8.556876733398436,0.01,0.0,0.0,0.0,0.01,0.0,0.0,0.0,0.01
1573857271.9330883,58512,674,744318060,/os1_imu,0.0,0.0,0.0,0.0,-1.0,-1.0,-1.0,-1.0,-1.0,-1.0,-1.0,-1.0,-1.0,-0.0007989483270237714,0.01251685712337242,0.03368898778950236,0.0006,0.0,0.0,0.0,0.0006,0.0,0.0,0.0,0.0006,-0.086191259765625,1.35990654296875,8.863334545898438,0.01,0.0,0.0,0.0,0.01,0.0,0.0,0.0,0.01
1573857271.9430707,58513,674,754318280,/os1_imu,0.0,0.0,0.0,0.0,-1.0,-1.0,-1.0,-1.0,-1.0,-1.0,-1.0,-1.0,-1.0,0.0023968449810713144,0.008255799379245638,0.03382214584400632,0.0006,0.0,0.0,0.0,0.0006,0.0,0.0,0.0,0.0006,-0.2657563842773437,1.2928688964843749,8.465897070312499,0.01,0.0,0.0,0.0,0.01,0.0,0.0,0.0,0.01
1573857271.953157,58514,674,764318270,/os1_imu,0.0,0.0,0.0,0.0,-1.0,-1.0,-1.0,-1.0,-1.0,-1.0,-1.0,-1.0,-1.0,0.001331580545039619,-0.004660531907638666,0.03302319751698255,0.0006,0.0,0.0,0.0,0.0006,0.0,0.0,0.0,0.0006,-0.45010991210937495,1.3958195678710936,8.645462194824217,0.01,0.0,0.0,0.0,0.01,0.0,0.0,0.0,0.01
1573857271.9635086,58515,674,774318130,/os1_imu,0.0,0.0,0.0,0.0,-1.0,-1.0,-1.0,-1.0,-1.0,-1.0,-1.0,-1.0,-1.0,-0.0011984224905356572,-0.007723167161229791,0.03209109113545482,0.0006,0.0,0.0,0.0,0.0006,0.0,0.0,0.0,0.0006,-0.2561795776367187,1.407790576171875,8.95670841064453,0.01,0.0,0.0,0.0,0.01,0.0,0.0,0.0,0.01
1573857271.9733992,58516,674,784318430,/os1_imu,0.0,0.0,0.0,0.0,-1.0,-1.0,-1.0,-1.0,-1.0,-1.0,-1.0,-1.0,-1.0,-0.0023968449810713144,-0.004127899689622819,0.030759510590415203,0.0006,0.0,0.0,0.0,0.0006,0.0,0.0,0.0,0.0006,-0.11252747802734374,1.2856862915039062,8.602366564941406,0.01,0.0,0.0,0.0,0.01,0.0,0.0,0.0,0.01
1573857271.983055,58517,674,794318110,/os1_imu,0.0,0.0,0.0,0.0,-1.0,-1.0,-1.0,-1.0,-1.0,-1.0,-1.0,-1.0,-1.0,-0.0027963191445832,0.005992112452678286,0.03422162000751821,0.0006,0.0,0.0,0.0,0.0006,0.0,0.0,0.0,0.0006,-0.13407529296874998,1.3958195678710936,8.892064965820312,0.01,0.0,0.0,0.0,0.01,0.0,0.0,0.0,0.01
1573857271.9930413,58518,674,804318080,/os1_imu,0.0,0.0,0.0,0.0,-1.0,-1.0,-1.0,-1.0,-1.0,-1.0,-1.0,-1.0,-1.0,-0.003062635253591124,0.0031957933080950856,0.036751623043093484,0.0006,0.0,0.0,0.0,0.0006,0.0,0.0,0.0,0.0006,-0.29927520751953124,1.2976572998046874,8.621520178222656,0.01,0.0,0.0,0.0,0.01,0.0,0.0,0.0,0.01
1573857272.0033922,58519,674,814318030,/os1_imu,0.0,0.0,0.0,0.0,-1.0,-1.0,-1.0,-1.0,-1.0,-1.0,-1.0,-1.0,-1.0,-0.0014647385995435807,0.0023968449810713144,0.031691616971942935,0.0006,0.0,0.0,0.0,0.0006,0.0,0.0,0.0,0.0006,-0.32561142578124996,1.5155296508789062,8.63827958984375,0.01,0.0,0.0,0.0,0.01,0.0,0.0,0.0,0.01
1573857272.0137205,58520,674,824318430,/os1_imu,0.0,0.0,0.0,0.0,-1.0,-1.0,-1.0,-1.0,-1.0,-1.0,-1.0,-1.0,-1.0,-0.0019973708175594286,-0.0066579027251980945,0.03142530086293501,0.0006,0.0,0.0,0.0,0.0006,0.0,0.0,0.0,0.0006,-0.17238251953125,1.407790576171875,8.911218579101561,0.01,0.0,0.0,0.0,0.01,0.0,0.0,0.0,0.01
1573857272.0230742,58521,674,834318010,/os1_imu,0.0,0.0,0.0,0.0,-1.0,-1.0,-1.0,-1.0,-1.0,-1.0,-1.0,-1.0,-1.0,-0.008788431597261486,0.001731054708551505,0.034354778062022175,0.0006,0.0,0.0,0.0,0.0006,0.0,0.0,0.0,0.0006,-0.08140285644531249,1.3359645263671873,8.779537487792968,0.01,0.0,0.0,0.0,0.01,0.0,0.0,0.0,0.01
1573857272.0331275,58522,674,844318270,/os1_imu,0.0,0.0,0.0,0.0,-1.0,-1.0,-1.0,-1.0,-1.0,-1.0,-1.0,-1.0,-1.0,-0.008921589651765448,0.02170476288414579,0.03701793915210141,0.0006,0.0,0.0,0.0,0.0006,0.0,0.0,0.0,0.0006,-0.08858546142578125,1.3575123413085937,8.801085302734375,0.01,0.0,0.0,0.0,0.01,0.0,0.0,0.0,0.01
1573857272.043147,58523,674,854318430,/os1_imu,0.0,0.0,0.0,0.0,-1.0,-1.0,-1.0,-1.0,-1.0,-1.0,-1.0,-1.0,-1.0,-0.007057376888709981,0.021438446775137867,0.039414784133172724,0.0006,0.0,0.0,0.0,0.0006,0.0,0.0,0.0,0.0006,-0.277727392578125,1.3311761230468748,8.549694128417968,0.01,0.0,0.0,0.0,0.01,0.0,0.0,0.0,0.01
1573857272.0533597,58524,674,864318030,/os1_imu,0.0,0.0,0.0,0.0,-1.0,-1.0,-1.0,-1.0,-1.0,-1.0,-1.0,-1.0,-1.0,-0.004660531907638666,0.011984224905356573,0.035952674716069714,0.0006,0.0,0.0,0.0,0.0006,0.0,0.0,0.0,0.0006,-0.44053310546874996,1.4532804077148436,8.767566479492187,0.01,0.0,0.0,0.0,0.01,0.0,0.0,0.0,0.01
1573857272.0756364,58525,674,874318430,/os1_imu,0.0,0.0,0.0,0.0,-1.0,-1.0,-1.0,-1.0,-1.0,-1.0,-1.0,-1.0,-1.0,-0.008522115488253561,0.0027963191445832,0.03382214584400632,0.0006,0.0,0.0,0.0,0.0006,0.0,0.0,0.0,0.0006,-0.32561142578124996,1.2473790649414063,8.71489404296875,0.01,0.0,0.0,0.0,0.01,0.0,0.0,0.0,0.01
1573857272.075676,58526,674,884318020,/os1_imu,0.0,0.0,0.0,0.0,-1.0,-1.0,-1.0,-1.0,-1.0,-1.0,-1.0,-1.0,-1.0,-0.007057376888709981,0.0066579027251980945,0.03608583277057368,0.0006,0.0,0.0,0.0,0.0006,0.0,0.0,0.0,0.0006,-0.19393033447265623,1.0965443603515623,8.834604125976561,0.01,0.0,0.0,0.0,0.01,0.0,0.0,0.0,0.01
1573857272.0834453,58527,674,894318320,/os1_imu,0.0,0.0,0.0,0.0,-1.0,-1.0,-1.0,-1.0,-1.0,-1.0,-1.0,-1.0,-1.0,0.0007989483270237714,0.01265001517787638,0.04114583884172423,0.0006,0.0,0.0,0.0,0.0006,0.0,0.0,0.0,0.0006,-0.055066638183593745,1.20667763671875,8.662221606445312,0.01,0.0,0.0,0.0,0.01,0.0,0.0,0.0,0.01
1573857272.0933135,58528,674,904318050,/os1_imu,0.0,0.0,0.0,0.0,-1.0,-1.0,-1.0,-1.0,-1.0,-1.0,-1.0,-1.0,-1.0,-0.0007989483270237714,0.01744370514001901,0.03954794218767669,0.0006,0.0,0.0,0.0,0.0006,0.0,0.0,0.0,0.0006,-0.24181436767578124,1.1611878051757811,8.441955053710936,0.01,0.0,0.0,0.0,0.01,0.0,0.0,0.0,0.01
1573857272.103526,58529,674,914318070,/os1_imu,0.0,0.0,0.0,0.0,-1.0,-1.0,-1.0,-1.0,-1.0,-1.0,-1.0,-1.0,-1.0,-0.004127899689622819,0.01611212459497939,0.03648530693408556,0.0006,0.0,0.0,0.0,0.0006,0.0,0.0,0.0,0.0006,-0.3854664672851562,1.0271125122070313,8.88009395751953,0.01,0.0,0.0,0.0,0.01,0.0,0.0,0.0,0.01
1573857272.113213,58530,674,924318050,/os1_imu,0.0,0.0,0.0,0.0,-1.0,-1.0,-1.0,-1.0,-1.0,-1.0,-1.0,-1.0,-1.0,-0.0029294771990871615,0.017576863194522972,0.0363521488795816,0.0006,0.0,0.0,0.0,0.0006,0.0,0.0,0.0,0.0006,-0.2442085693359375,0.9552864624023437,8.647856396484375,0.01,0.0,0.0,0.0,0.01,0.0,0.0,0.0,0.01
1573857272.123075,58531,674,934318430,/os1_imu,0.0,0.0,0.0,0.0,-1.0,-1.0,-1.0,-1.0,-1.0,-1.0,-1.0,-1.0,-1.0,-0.005459480234662438,0.019041601794066554,0.0391484680241648,0.0006,0.0,0.0,0.0,0.0006,0.0,0.0,0.0,0.0006,-0.1388636962890625,0.93852705078125,8.808267907714843,0.01,0.0,0.0,0.0,0.01,0.0,0.0,0.0,0.01
1573857272.1333525,58532,674,944318070,/os1_imu,0.0,0.0,0.0,0.0,-1.0,-1.0,-1.0,-1.0,-1.0,-1.0,-1.0,-1.0,-1.0,-0.0002663161090079238,0.0346210941710301,0.04247741938676385,0.0006,0.0,0.0,0.0,0.0006,0.0,0.0,0.0,0.0006,-0.11013327636718749,1.1707646118164061,8.66940421142578,0.01,0.0,0.0,0.0,0.01,0.0,0.0,0.0,0.01
1573857272.1431289,58533,674,954318430,/os1_imu,0.0,0.0,0.0,0.0,-1.0,-1.0,-1.0,-1.0,-1.0,-1.0,-1.0,-1.0,-1.0,0.001731054708551505,0.03834951969714103,0.044341632149819316,0.0006,0.0,0.0,0.0,0.0006,0.0,0.0,0.0,0.0006,-0.28490999755859375,1.2234370483398436,8.556876733398436,0.01,0.0,0.0,0.0,0.01,0.0,0.0,0.0,0.01
1573857272.1533313,58534,674,964318060,/os1_imu,0.0,0.0,0.0,0.0,-1.0,-1.0,-1.0,-1.0,-1.0,-1.0,-1.0,-1.0,-1.0,0.003728425526110933,0.028895297827359733,0.04114583884172423,0.0006,0.0,0.0,0.0,0.0006,0.0,0.0,0.0,0.0006,-0.6272808349609375,1.3096283081054687,8.602366564941406,0.01,0.0,0.0,0.0,0.01,0.0,0.0,0.0,0.01
1573857272.1684883,58535,674,974318430,/os1_imu,0.0,0.0,0.0,0.0,-1.0,-1.0,-1.0,-1.0,-1.0,-1.0,-1.0,-1.0,-1.0,0.0022636869265673524,0.025699504519264647,0.037550571370117254,0.0006,0.0,0.0,0.0,0.0006,0.0,0.0,0.0,0.0006,-0.5027823486328125,1.3144167114257812,8.619125976562499,0.01,0.0,0.0,0.0,0.01,0.0,0.0,0.0,0.01
1573857272.1732242,58536,674,984318430,/os1_imu,0.0,0.0,0.0,0.0,-1.0,-1.0,-1.0,-1.0,-1.0,-1.0,-1.0,-1.0,-1.0,-0.005858954398174323,0.031558458917438977,0.03528688444354991,0.0006,0.0,0.0,0.0,0.0006,0.0,0.0,0.0,0.0006,-0.55545478515625,1.438915197753906,8.643067993164061,0.01,0.0,0.0,0.0,0.01,0.0,0.0,0.0,0.01
1573857272.183428,58537,674,994318090,/os1_imu,0.0,0.0,0.0,0.0,-1.0,-1.0,-1.0,-1.0,-1.0,-1.0,-1.0,-1.0,-1.0,0.0035952674716069714,0.0318247750264469,0.04167847105974008,0.0006,0.0,0.0,0.0,0.0006,0.0,0.0,0.0,0.0006,-0.3902548706054687,1.446097802734375,8.568847741699217,0.01,0.0,0.0,0.0,0.01,0.0,0.0,0.0,0.01
1573857272.1932483,58538,675,4318000,/os1_imu,0.0,0.0,0.0,0.0,-1.0,-1.0,-1.0,-1.0,-1.0,-1.0,-1.0,-1.0,-1.0,-0.0035952674716069714,0.02423476591972107,0.042876893550275734,0.0006,0.0,0.0,0.0,0.0006,0.0,0.0,0.0,0.0006,-0.49320554199218747,1.4891934326171874,8.341398583984375,0.01,0.0,0.0,0.0,0.01,0.0,0.0,0.0,0.01
1573857272.2033236,58539,675,14318030,/os1_imu,0.0,0.0,0.0,0.0,-1.0,-1.0,-1.0,-1.0,-1.0,-1.0,-1.0,-1.0,-1.0,-0.0003994741635118857,0.021305288720633905,0.04061320662370838,0.0006,0.0,0.0,0.0,0.0006,0.0,0.0,0.0,0.0006,-0.8116343627929687,1.2425906616210938,8.607154968261717,0.01,0.0,0.0,0.0,0.01,0.0,0.0,0.0,0.01
1573857272.213431,58540,675,24318330,/os1_imu,0.0,0.0,0.0,0.0,-1.0,-1.0,-1.0,-1.0,-1.0,-1.0,-1.0,-1.0,-1.0,-0.005060006071150552,0.028362665609343887,0.036751623043093484,0.0006,0.0,0.0,0.0,0.0006,0.0,0.0,0.0,0.0006,-0.74699091796875,1.2904746948242187,8.51617530517578,0.01,0.0,0.0,0.0,0.01,0.0,0.0,0.0,0.01
1573857272.2231252,58541,675,34318420,/os1_imu,0.0,0.0,0.0,0.0,-1.0,-1.0,-1.0,-1.0,-1.0,-1.0,-1.0,-1.0,-1.0,-0.0066579027251980945,0.03222424918995878,0.035819516661565756,0.0006,0.0,0.0,0.0,0.0006,0.0,0.0,0.0,0.0006,-0.689530078125,1.1611878051757811,8.513781103515624,0.01,0.0,0.0,0.0,0.01,0.0,0.0,0.0,0.01
1573857272.2332113,58542,675,44318010,/os1_imu,0.0,0.0,0.0,0.0,-1.0,-1.0,-1.0,-1.0,-1.0,-1.0,-1.0,-1.0,-1.0,-0.00346210941710301,0.032490565298966705,0.03901530996966084,0.0006,0.0,0.0,0.0,0.0006,0.0,0.0,0.0,0.0006,-0.7637503295898437,1.216254443359375,8.611943371582031,0.01,0.0,0.0,0.0,0.01,0.0,0.0,0.0,0.01
1573857272.243436,58543,675,54318110,/os1_imu,0.0,0.0,0.0,0.0,-1.0,-1.0,-1.0,-1.0,-1.0,-1.0,-1.0,-1.0,-1.0,-0.0022636869265673524,0.02583266257376861,0.03688478109759745,0.0006,0.0,0.0,0.0,0.0006,0.0,0.0,0.0,0.0006,-0.8044517578125,1.235408056640625,8.243236315917969,0.01,0.0,0.0,0.0,0.01,0.0,0.0,0.0,0.01
1573857272.2532904,58544,675,64318030,/os1_imu,0.0,0.0,0.0,0.0,-1.0,-1.0,-1.0,-1.0,-1.0,-1.0,-1.0,-1.0,-1.0,-0.0003994741635118857,0.01265001517787638,0.03475425222553406,0.0006,0.0,0.0,0.0,0.0006,0.0,0.0,0.0,0.0006,-0.9145850341796874,1.1180921752929687,8.544905725097657,0.01,0.0,0.0,0.0,0.01,0.0,0.0,0.0,0.01
1573857272.2761965,58545,675,74318470,/os1_imu,0.0,0.0,0.0,0.0,-1.0,-1.0,-1.0,-1.0,-1.0,-1.0,-1.0,-1.0,-1.0,-0.0021305288720633903,0.014913702104443732,0.03222424918995878,0.0006,0.0,0.0,0.0,0.0006,0.0,0.0,0.0,0.0006,-1.1013327636718748,1.1516109985351561,8.518569506835936,0.01,0.0,0.0,0.0,0.01,0.0,0.0,0.0,0.01
1573857272.2762637,58546,675,84318420,/os1_imu,0.0,0.0,0.0,0.0,-1.0,-1.0,-1.0,-1.0,-1.0,-1.0,-1.0,-1.0,-1.0,-0.005193164125654515,0.02024002428460221,0.037417413315613296,0.0006,0.0,0.0,0.0,0.0006,0.0,0.0,0.0,0.0006,-1.005564697265625,1.1180921752929687,8.604760766601562,0.01,0.0,0.0,0.0,0.01,0.0,0.0,0.0,0.01
1573857272.2833123,58547,675,94318000,/os1_imu,0.0,0.0,0.0,0.0,-1.0,-1.0,-1.0,-1.0,-1.0,-1.0,-1.0,-1.0,-1.0,0.0009321063815277333,0.013981595722916,0.040879522732716306,0.0006,0.0,0.0,0.0,0.0006,0.0,0.0,0.0,0.0006,-1.0079588989257813,1.4030021728515625,8.437166650390624,0.01,0.0,0.0,0.0,0.01,0.0,0.0,0.0,0.01
1573857272.293376,58548,675,104318380,/os1_imu,0.0,0.0,0.0,0.0,-1.0,-1.0,-1.0,-1.0,-1.0,-1.0,-1.0,-1.0,-1.0,0.005459480234662438,0.0073236929977179045,0.03821636164263707,0.0006,0.0,0.0,0.0,0.0006,0.0,0.0,0.0,0.0006,-1.0869675537109373,1.2425906616210938,8.456320263671875,0.01,0.0,0.0,0.0,0.01,0.0,0.0,0.0,0.01
1573857272.3036203,58549,675,114318420,/os1_imu,0.0,0.0,0.0,0.0,-1.0,-1.0,-1.0,-1.0,-1.0,-1.0,-1.0,-1.0,-1.0,0.003062635253591124,0.008122641324741676,0.03342267168049444,0.0006,0.0,0.0,0.0,0.0006,0.0,0.0,0.0,0.0006,-1.158793603515625,1.2401964599609374,8.578424548339843,0.01,0.0,0.0,0.0,0.01,0.0,0.0,0.0,0.01
1573857272.313443,58550,675,124318020,/os1_imu,0.0,0.0,0.0,0.0,-1.0,-1.0,-1.0,-1.0,-1.0,-1.0,-1.0,-1.0,-1.0,-0.001731054708551505,0.007057376888709981,0.03608583277057368,0.0006,0.0,0.0,0.0,0.0006,0.0,0.0,0.0,0.0006,-1.149216796875,1.235408056640625,8.588001354980468,0.01,0.0,0.0,0.0,0.01,0.0,0.0,0.0,0.01
1573857272.323036,58551,675,134318150,/os1_imu,0.0,0.0,0.0,0.0,-1.0,-1.0,-1.0,-1.0,-1.0,-1.0,-1.0,-1.0,-1.0,0.0002663161090079238,0.007856325215733753,0.03954794218767669,0.0006,0.0,0.0,0.0,0.0006,0.0,0.0,0.0,0.0006,-1.1180921752929687,1.2330138549804688,8.556876733398436,0.01,0.0,0.0,0.0,0.01,0.0,0.0,0.0,0.01
1573857272.3333673,58552,675,144318030,/os1_imu,0.0,0.0,0.0,0.0,-1.0,-1.0,-1.0,-1.0,-1.0,-1.0,-1.0,-1.0,-1.0,0.001731054708551505,0.016245282649483352,0.0430100516047797,0.0006,0.0,0.0,0.0,0.0006,0.0,0.0,0.0,0.0006,-0.9911994873046874,1.2378022583007813,8.681375219726561,0.01,0.0,0.0,0.0,0.01,0.0,0.0,0.0,0.01
1573857272.3432233,58553,675,154318290,/os1_imu,0.0,0.0,0.0,0.0,-1.0,-1.0,-1.0,-1.0,-1.0,-1.0,-1.0,-1.0,-1.0,0.0033289513625990473,0.009321063815277333,0.04127899689622819,0.0006,0.0,0.0,0.0,0.0006,0.0,0.0,0.0,0.0006,-1.149216796875,1.20667763671875,8.525752111816406,0.01,0.0,0.0,0.0,0.01,0.0,0.0,0.0,0.01
1573857272.3530843,58554,675,164318070,/os1_imu,0.0,0.0,0.0,0.0,-1.0,-1.0,-1.0,-1.0,-1.0,-1.0,-1.0,-1.0,-1.0,0.0055926382891664,-0.0031957933080950856,0.040080574405692536,0.0006,0.0,0.0,0.0,0.0006,0.0,0.0,0.0,0.0006,-1.3311761230468748,1.120486376953125,8.564059338378906,0.01,0.0,0.0,0.0,0.01,0.0,0.0,0.0,0.01
1573857272.3696148,58555,675,174318060,/os1_imu,0.0,0.0,0.0,0.0,-1.0,-1.0,-1.0,-1.0,-1.0,-1.0,-1.0,-1.0,-1.0,0.0031957933080950856,-0.006125270507182248,0.03368898778950236,0.0006,0.0,0.0,0.0,0.0006,0.0,0.0,0.0,0.0006,-1.218648645019531,1.2306196533203124,8.664615808105468,0.01,0.0,0.0,0.0,0.01,0.0,0.0,0.0,0.01
1573857272.3730927,58556,675,184318020,/os1_imu,0.0,0.0,0.0,0.0,-1.0,-1.0,-1.0,-1.0,-1.0,-1.0,-1.0,-1.0,-1.0,0.0006657902725198095,0.004394215798630743,0.03808320358813311,0.0006,0.0,0.0,0.0,0.0006,0.0,0.0,0.0,0.0006,-1.1037269653320312,1.2497732666015624,8.542511523437499,0.01,0.0,0.0,0.0,0.01,0.0,0.0,0.0,0.01
1573857272.3831718,58557,675,194318000,/os1_imu,0.0,0.0,0.0,0.0,-1.0,-1.0,-1.0,-1.0,-1.0,-1.0,-1.0,-1.0,-1.0,0.004660531907638666,-0.0007989483270237714,0.043675841877299504,0.0006,0.0,0.0,0.0,0.0006,0.0,0.0,0.0,0.0006,-1.2713210815429687,1.3407529296874998,8.671798413085938,0.01,0.0,0.0,0.0,0.01,0.0,0.0,0.0,0.01
1573857272.3930993,58558,675,204318290,/os1_imu,0.0,0.0,0.0,0.0,-1.0,-1.0,-1.0,-1.0,-1.0,-1.0,-1.0,-1.0,-1.0,0.006391586616190171,-0.013315805450396189,0.04926848016646591,0.0006,0.0,0.0,0.0,0.0006,0.0,0.0,0.0,0.0006,-1.350329736328125,1.216254443359375,8.468291271972657,0.01,0.0,0.0,0.0,0.01,0.0,0.0,0.0,0.01
1573857272.4033244,58559,675,214318420,/os1_imu,0.0,0.0,0.0,0.0,-1.0,-1.0,-1.0,-1.0,-1.0,-1.0,-1.0,-1.0,-1.0,0.009187905760773371,-0.01944107595757844,0.04167847105974008,0.0006,0.0,0.0,0.0,0.0006,0.0,0.0,0.0,0.0006,-1.254561669921875,1.2713210815429687,8.461108666992187,0.01,0.0,0.0,0.0,0.01,0.0,0.0,0.0,0.01
1573857272.4133987,58560,675,224318420,/os1_imu,0.0,0.0,0.0,0.0,-1.0,-1.0,-1.0,-1.0,-1.0,-1.0,-1.0,-1.0,-1.0,0.00692421883420602,-0.014114753777419962,0.04181162911424404,0.0006,0.0,0.0,0.0,0.0006,0.0,0.0,0.0,0.0006,-1.1324573852539062,1.1611878051757811,8.705317236328124,0.01,0.0,0.0,0.0,0.01,0.0,0.0,0.0,0.01
1573857272.4232454,58561,675,234318040,/os1_imu,0.0,0.0,0.0,0.0,-1.0,-1.0,-1.0,-1.0,-1.0,-1.0,-1.0,-1.0,-1.0,0.0029294771990871615,-0.007989483270237714,0.04247741938676385,0.0006,0.0,0.0,0.0,0.0006,0.0,0.0,0.0,0.0006,-1.189918225097656,1.0965443603515623,8.547299926757812,0.01,0.0,0.0,0.0,0.01,0.0,0.0,0.0,0.01
1573857272.433189,58562,675,244318040,/os1_imu,0.0,0.0,0.0,0.0,-1.0,-1.0,-1.0,-1.0,-1.0,-1.0,-1.0,-1.0,-1.0,0.0031957933080950856,-0.0019973708175594286,0.04913532211196195,0.0006,0.0,0.0,0.0,0.0006,0.0,0.0,0.0,0.0006,-1.2880804931640624,1.1252747802734375,8.731653454589843,0.01,0.0,0.0,0.0,0.01,0.0,0.0,0.0,0.01
1573857272.443081,58563,675,254318400,/os1_imu,0.0,0.0,0.0,0.0,-1.0,-1.0,-1.0,-1.0,-1.0,-1.0,-1.0,-1.0,-1.0,0.0029294771990871615,-0.011318434632836761,0.04567321269485893,0.0006,0.0,0.0,0.0,0.0006,0.0,0.0,0.0,0.0006,-1.3024457031249999,1.2306196533203124,8.444349255371094,0.01,0.0,0.0,0.0,0.01,0.0,0.0,0.0,0.01
1573857272.4535444,58564,675,264318120,/os1_imu,0.0,0.0,0.0,0.0,-1.0,-1.0,-1.0,-1.0,-1.0,-1.0,-1.0,-1.0,-1.0,0.006791060779702058,-0.019973708175594285,0.0430100516047797,0.0006,0.0,0.0,0.0,0.0006,0.0,0.0,0.0,0.0006,-1.407790576171875,1.1061211669921875,8.389282617187499,0.01,0.0,0.0,0.0,0.01,0.0,0.0,0.0,0.01
1573857272.4732862,58565,675,274318030,/os1_imu,0.0,0.0,0.0,0.0,-1.0,-1.0,-1.0,-1.0,-1.0,-1.0,-1.0,-1.0,-1.0,0.005992112452678286,-0.02170476288414579,0.044341632149819316,0.0006,0.0,0.0,0.0,0.0006,0.0,0.0,0.0,0.0006,-1.2665326782226562,1.1444283935546875,8.722076647949219,0.01,0.0,0.0,0.0,0.01,0.0,0.0,0.0,0.01
1573857272.4737325,58566,675,284318270,/os1_imu,0.0,0.0,0.0,0.0,-1.0,-1.0,-1.0,-1.0,-1.0,-1.0,-1.0,-1.0,-1.0,0.01038632825130903,-0.015180018213451656,0.0464721610218827,0.0006,0.0,0.0,0.0,0.0006,0.0,0.0,0.0,0.0006,-1.2138602416992186,1.0869675537109373,8.532934716796875,0.01,0.0,0.0,0.0,0.01,0.0,0.0,0.0,0.01
1573857272.483152,58567,675,294318050,/os1_imu,0.0,0.0,0.0,0.0,-1.0,-1.0,-1.0,-1.0,-1.0,-1.0,-1.0,-1.0,-1.0,0.0111852765783328,-0.014381069886427886,0.048869006002954025,0.0006,0.0,0.0,0.0,0.0006,0.0,0.0,0.0,0.0006,-1.2330138549804688,1.149216796875,8.504204296874999,0.01,0.0,0.0,0.0,0.01,0.0,0.0,0.0,0.01
1573857272.493028,58568,675,304318000,/os1_imu,0.0,0.0,0.0,0.0,-1.0,-1.0,-1.0,-1.0,-1.0,-1.0,-1.0,-1.0,-1.0,0.013715279613908078,-0.02250371121116956,0.04993427043898572,0.0006,0.0,0.0,0.0,0.0006,0.0,0.0,0.0,0.0006,-1.3862427612304686,1.3096283081054687,8.327033374023436,0.01,0.0,0.0,0.0,0.01,0.0,0.0,0.0,0.01
1573857272.5035696,58569,675,314318080,/os1_imu,0.0,0.0,0.0,0.0,-1.0,-1.0,-1.0,-1.0,-1.0,-1.0,-1.0,-1.0,-1.0,0.0111852765783328,-0.026232136737280493,0.044474790204323274,0.0006,0.0,0.0,0.0,0.0006,0.0,0.0,0.0,0.0006,-1.3862427612304686,1.1372457885742187,8.355763793945313,0.01,0.0,0.0,0.0,0.01,0.0,0.0,0.0,0.01
1573857272.5133154,58570,675,324318420,/os1_imu,0.0,0.0,0.0,0.0,-1.0,-1.0,-1.0,-1.0,-1.0,-1.0,-1.0,-1.0,-1.0,0.009321063815277333,-0.028362665609343887,0.04261057744126781,0.0006,0.0,0.0,0.0,0.0006,0.0,0.0,0.0,0.0006,-1.0893617553710937,1.2306196533203124,8.506598498535157,0.01,0.0,0.0,0.0,0.01,0.0,0.0,0.0,0.01
1573857272.5231197,58571,675,334318420,/os1_imu,0.0,0.0,0.0,0.0,-1.0,-1.0,-1.0,-1.0,-1.0,-1.0,-1.0,-1.0,-1.0,0.011451592687340723,-0.025433188410256723,0.042743735495771776,0.0006,0.0,0.0,0.0,0.0006,0.0,0.0,0.0,0.0006,-1.0606313354492187,0.97683427734375,8.403647827148436,0.01,0.0,0.0,0.0,0.01,0.0,0.0,0.0,0.01
1573857272.5331066,58572,675,344318150,/os1_imu,0.0,0.0,0.0,0.0,-1.0,-1.0,-1.0,-1.0,-1.0,-1.0,-1.0,-1.0,-1.0,0.011318434632836761,-0.015579492376963544,0.04727110934890648,0.0006,0.0,0.0,0.0,0.0006,0.0,0.0,0.0,0.0006,-0.8690952026367187,1.3144167114257812,8.396465222167969,0.01,0.0,0.0,0.0,0.01,0.0,0.0,0.0,0.01
1573857272.543348,58573,675,354318010,/os1_imu,0.0,0.0,0.0,0.0,-1.0,-1.0,-1.0,-1.0,-1.0,-1.0,-1.0,-1.0,-1.0,0.012117382959860534,-0.0195742340120824,0.044474790204323274,0.0006,0.0,0.0,0.0,0.0006,0.0,0.0,0.0,0.0006,-1.0630255371093749,1.1252747802734375,8.360552197265624,0.01,0.0,0.0,0.0,0.01,0.0,0.0,0.0,0.01
1573857272.55348,58574,675,364318010,/os1_imu,0.0,0.0,0.0,0.0,-1.0,-1.0,-1.0,-1.0,-1.0,-1.0,-1.0,-1.0,-1.0,0.019174759848570515,-0.019973708175594285,0.04314320965928366,0.0006,0.0,0.0,0.0,0.0006,0.0,0.0,0.0,0.0006,-1.2569558715820313,1.189918225097656,8.298302954101562,0.01,0.0,0.0,0.0,0.01,0.0,0.0,0.0,0.01
1573857272.568517,58575,675,374318270,/os1_imu,0.0,0.0,0.0,0.0,-1.0,-1.0,-1.0,-1.0,-1.0,-1.0,-1.0,-1.0,-1.0,0.017576863194522972,-0.03142530086293501,0.04167847105974008,0.0006,0.0,0.0,0.0,0.0006,0.0,0.0,0.0,0.0006,-1.1659762084960936,1.139639990234375,8.305485559082031,0.01,0.0,0.0,0.0,0.01,0.0,0.0,0.0,0.01
1573857272.5731924,58576,675,384318280,/os1_imu,0.0,0.0,0.0,0.0,-1.0,-1.0,-1.0,-1.0,-1.0,-1.0,-1.0,-1.0,-1.0,0.014114753777419962,-0.024501082028728992,0.036751623043093484,0.0006,0.0,0.0,0.0,0.0006,0.0,0.0,0.0,0.0006,-0.9121908325195311,1.0558429321289062,8.508992700195313,0.01,0.0,0.0,0.0,0.01,0.0,0.0,0.0,0.01
1573857272.5831358,58577,675,394318050,/os1_imu,0.0,0.0,0.0,0.0,-1.0,-1.0,-1.0,-1.0,-1.0,-1.0,-1.0,-1.0,-1.0,0.015579492376963544,-0.022104237047657675,0.03821636164263707,0.0006,0.0,0.0,0.0,0.0006,0.0,0.0,0.0,0.0006,-0.7685387329101562,1.3718775512695311,8.283937744140625,0.01,0.0,0.0,0.0,0.01,0.0,0.0,0.0,0.01
1573857272.5932698,58578,675,404318420,/os1_imu,0.0,0.0,0.0,0.0,-1.0,-1.0,-1.0,-1.0,-1.0,-1.0,-1.0,-1.0,-1.0,0.021438446775137867,-0.0268979270098003,0.03901530996966084,0.0006,0.0,0.0,0.0,0.0006,0.0,0.0,0.0,0.0006,-0.9935936889648437,1.1635820068359375,8.327033374023436,0.01,0.0,0.0,0.0,0.01,0.0,0.0,0.0,0.01
1573857272.6032228,58579,675,414318080,/os1_imu,0.0,0.0,0.0,0.0,-1.0,-1.0,-1.0,-1.0,-1.0,-1.0,-1.0,-1.0,-1.0,0.027963191445832,-0.027031085064304263,0.03142530086293501,0.0006,0.0,0.0,0.0,0.0006,0.0,0.0,0.0,0.0006,-0.9504980590820312,1.1947066284179686,8.394071020507813,0.01,0.0,0.0,0.0,0.01,0.0,0.0,0.0,0.01
1573857272.6134963,58580,675,424318000,/os1_imu,0.0,0.0,0.0,0.0,-1.0,-1.0,-1.0,-1.0,-1.0,-1.0,-1.0,-1.0,-1.0,0.02037318233910617,-0.021971078993153714,0.028495823663847848,0.0006,0.0,0.0,0.0,0.0006,0.0,0.0,0.0,0.0006,-0.9241618408203125,1.16837041015625,8.276755139160155,0.01,0.0,0.0,0.0,0.01,0.0,0.0,0.0,0.01
1573857272.6232548,58581,675,434318020,/os1_imu,0.0,0.0,0.0,0.0,-1.0,-1.0,-1.0,-1.0,-1.0,-1.0,-1.0,-1.0,-1.0,0.019840550121090324,-0.018775285685058627,0.026232136737280493,0.0006,0.0,0.0,0.0,0.0006,0.0,0.0,0.0,0.0006,-0.8259995727539062,1.1133037719726562,8.339004382324218,0.01,0.0,0.0,0.0,0.01,0.0,0.0,0.0,0.01
1573857272.6332047,58582,675,444318100,/os1_imu,0.0,0.0,0.0,0.0,-1.0,-1.0,-1.0,-1.0,-1.0,-1.0,-1.0,-1.0,-1.0,0.016511598758491276,-0.011717908796348646,0.03209109113545482,0.0006,0.0,0.0,0.0,0.0006,0.0,0.0,0.0,0.0006,-0.8810662109374999,1.3359645263671873,8.40125362548828,0.01,0.0,0.0,0.0,0.01,0.0,0.0,0.0,0.01
1573857272.643385,58583,675,454318420,/os1_imu,0.0,0.0,0.0,0.0,-1.0,-1.0,-1.0,-1.0,-1.0,-1.0,-1.0,-1.0,-1.0,0.021971078993153714,-0.015579492376963544,0.028495823663847848,0.0006,0.0,0.0,0.0,0.0006,0.0,0.0,0.0,0.0006,-0.7062894897460937,1.0534487304687499,8.288726147460936,0.01,0.0,0.0,0.0,0.01,0.0,0.0,0.0,0.01
1573857272.6536186,58584,675,464318270,/os1_imu,0.0,0.0,0.0,0.0,-1.0,-1.0,-1.0,-1.0,-1.0,-1.0,-1.0,-1.0,-1.0,0.02716424311880823,-0.019174759848570515,0.027297401173312193,0.0006,0.0,0.0,0.0,0.0006,0.0,0.0,0.0,0.0006,-0.9409212524414062,1.2880804931640624,8.21690009765625,0.01,0.0,0.0,0.0,0.01,0.0,0.0,0.0,0.01
1573857272.6848686,58585,675,474318000,/os1_imu,0.0,0.0,0.0,0.0,-1.0,-1.0,-1.0,-1.0,-1.0,-1.0,-1.0,-1.0,-1.0,0.019307917903074477,-0.019041601794066554,0.023968449810713145,0.0006,0.0,0.0,0.0,0.0006,0.0,0.0,0.0,0.0006,-0.9888052856445312,1.2880804931640624,8.415618835449218,0.01,0.0,0.0,0.0,0.01,0.0,0.0,0.0,0.01
1573857272.6849155,58586,675,484318030,/os1_imu,0.0,0.0,0.0,0.0,-1.0,-1.0,-1.0,-1.0,-1.0,-1.0,-1.0,-1.0,-1.0,0.02077265650261806,-0.011984224905356573,0.026365294791784455,0.0006,0.0,0.0,0.0,0.0006,0.0,0.0,0.0,0.0006,-0.8164227661132812,1.1061211669921875,8.427589843749999,0.01,0.0,0.0,0.0,0.01,0.0,0.0,0.0,0.01
1573857272.685596,58587,675,494318020,/os1_imu,0.0,0.0,0.0,0.0,-1.0,-1.0,-1.0,-1.0,-1.0,-1.0,-1.0,-1.0,-1.0,0.019707392066586362,-0.00346210941710301,0.027963191445832,0.0006,0.0,0.0,0.0,0.0006,0.0,0.0,0.0,0.0006,-0.7254431030273437,1.3024457031249999,8.398859423828124,0.01,0.0,0.0,0.0,0.01,0.0,0.0,0.0,0.01
1573857272.6935897,58588,675,504318050,/os1_imu,0.0,0.0,0.0,0.0,-1.0,-1.0,-1.0,-1.0,-1.0,-1.0,-1.0,-1.0,-1.0,0.023835291756209184,-0.010120012142301104,0.02423476591972107,0.0006,0.0,0.0,0.0,0.0006,0.0,0.0,0.0,0.0006,-0.8499415893554687,1.3311761230468748,8.473079675292968,0.01,0.0,0.0,0.0,0.01,0.0,0.0,0.0,0.01
1573857272.7035031,58589,675,514318170,/os1_imu,0.0,0.0,0.0,0.0,-1.0,-1.0,-1.0,-1.0,-1.0,-1.0,-1.0,-1.0,-1.0,0.016378440703987314,-0.011052118523828838,0.02157160482964183,0.0006,0.0,0.0,0.0,0.0006,0.0,0.0,0.0,0.0006,-0.9911994873046874,1.3383587280273437,8.461108666992187,0.01,0.0,0.0,0.0,0.01,0.0,0.0,0.0,0.01
1573857272.7133775,58590,675,524318320,/os1_imu,0.0,0.0,0.0,0.0,-1.0,-1.0,-1.0,-1.0,-1.0,-1.0,-1.0,-1.0,-1.0,0.01478054404993977,-0.017177389031011087,0.024634240083232953,0.0006,0.0,0.0,0.0,0.0006,0.0,0.0,0.0,0.0006,-0.9744400756835937,1.1731588134765625,8.394071020507813,0.01,0.0,0.0,0.0,0.01,0.0,0.0,0.0,0.01
1573857272.7237797,58591,675,534318420,/os1_imu,0.0,0.0,0.0,0.0,-1.0,-1.0,-1.0,-1.0,-1.0,-1.0,-1.0,-1.0,-1.0,0.015180018213451656,-0.010253170196805066,0.022770027320177483,0.0006,0.0,0.0,0.0,0.0006,0.0,0.0,0.0,0.0006,-0.8092401611328125,1.3838485595703125,8.602366564941406,0.01,0.0,0.0,0.0,0.01,0.0,0.0,0.0,0.01
1573857272.7334814,58592,675,544318420,/os1_imu,0.0,0.0,0.0,0.0,-1.0,-1.0,-1.0,-1.0,-1.0,-1.0,-1.0,-1.0,-1.0,0.01384843766841204,0.0023968449810713144,0.024900556192240877,0.0006,0.0,0.0,0.0,0.0006,0.0,0.0,0.0,0.0006,-0.7589619262695312,1.4604630126953124,8.537723120117187,0.01,0.0,0.0,0.0,0.01,0.0,0.0,0.0,0.01
1573857272.7434494,58593,675,554318130,/os1_imu,0.0,0.0,0.0,0.0,-1.0,-1.0,-1.0,-1.0,-1.0,-1.0,-1.0,-1.0,-1.0,0.018642127630554665,0.005725796343670361,0.021438446775137867,0.0006,0.0,0.0,0.0,0.0006,0.0,0.0,0.0,0.0006,-0.8188169677734375,1.2593500732421874,8.365340600585936,0.01,0.0,0.0,0.0,0.01,0.0,0.0,0.0,0.01
1573857272.7536688,58594,675,564318170,/os1_imu,0.0,0.0,0.0,0.0,-1.0,-1.0,-1.0,-1.0,-1.0,-1.0,-1.0,-1.0,-1.0,0.015313176267955617,-0.001331580545039619,0.017044230976507122,0.0006,0.0,0.0,0.0,0.0006,0.0,0.0,0.0,0.0006,-1.1372457885742187,1.465251416015625,8.568847741699217,0.01,0.0,0.0,0.0,0.01,0.0,0.0,0.0,0.01
1573857272.7742245,58595,675,574318420,/os1_imu,0.0,0.0,0.0,0.0,-1.0,-1.0,-1.0,-1.0,-1.0,-1.0,-1.0,-1.0,-1.0,0.017576863194522972,-0.005459480234662438,0.017576863194522972,0.0006,0.0,0.0,0.0,0.0006,0.0,0.0,0.0,0.0006,-1.2497732666015624,1.4030021728515625,8.595183959960938,0.01,0.0,0.0,0.0,0.01,0.0,0.0,0.0,0.01
1573857272.7744486,58596,675,584318360,/os1_imu,0.0,0.0,0.0,0.0,-1.0,-1.0,-1.0,-1.0,-1.0,-1.0,-1.0,-1.0,-1.0,0.012783173232380343,-0.004127899689622819,0.02356897564720126,0.0006,0.0,0.0,0.0,0.0006,0.0,0.0,0.0,0.0006,-0.9097966308593749,1.467645617675781,8.535328918457031,0.01,0.0,0.0,0.0,0.01,0.0,0.0,0.0,0.01
1573857272.7833498,58597,675,594318060,/os1_imu,0.0,0.0,0.0,0.0,-1.0,-1.0,-1.0,-1.0,-1.0,-1.0,-1.0,-1.0,-1.0,0.010253170196805066,-0.002663161090079238,0.02503371424674484,0.0006,0.0,0.0,0.0,0.0006,0.0,0.0,0.0,0.0006,-0.8307879760742187,1.6328455322265625,8.652644799804687,0.01,0.0,0.0,0.0,0.01,0.0,0.0,0.0,0.01
1573857272.7932093,58598,675,604318040,/os1_imu,0.0,0.0,0.0,0.0,-1.0,-1.0,-1.0,-1.0,-1.0,-1.0,-1.0,-1.0,-1.0,0.0167779148674992,0.003062635253591124,0.024900556192240877,0.0006,0.0,0.0,0.0,0.0006,0.0,0.0,0.0,0.0006,-1.024718310546875,1.5825672973632812,8.425195642089843,0.01,0.0,0.0,0.0,0.01,0.0,0.0,0.0,0.01
1573857272.8035305,58599,675,614318420,/os1_imu,0.0,0.0,0.0,0.0,-1.0,-1.0,-1.0,-1.0,-1.0,-1.0,-1.0,-1.0,-1.0,0.013049489341388266,-0.0002663161090079238,0.025699504519264647,0.0006,0.0,0.0,0.0,0.0006,0.0,0.0,0.0,0.0006,-1.1420341918945311,1.8124106567382812,8.566453540039062,0.01,0.0,0.0,0.0,0.01,0.0,0.0,0.0,0.01
1573857272.8135104,58600,675,624318050,/os1_imu,0.0,0.0,0.0,0.0,-1.0,-1.0,-1.0,-1.0,-1.0,-1.0,-1.0,-1.0,-1.0,0.002663161090079238,-0.005459480234662438,0.014647385995435809,0.0006,0.0,0.0,0.0,0.0006,0.0,0.0,0.0,0.0006,-1.0558429321289062,1.5322890624999999,8.56166513671875,0.01,0.0,0.0,0.0,0.01,0.0,0.0,0.0,0.01
1573857272.8232284,58601,675,634318040,/os1_imu,0.0,0.0,0.0,0.0,-1.0,-1.0,-1.0,-1.0,-1.0,-1.0,-1.0,-1.0,-1.0,0.0035952674716069714,-0.0038615835806148956,0.018375811521546742,0.0006,0.0,0.0,0.0,0.0006,0.0,0.0,0.0,0.0006,-0.97683427734375,1.7477672119140624,8.518569506835936,0.01,0.0,0.0,0.0,0.01,0.0,0.0,0.0,0.01
1573857272.8335168,58602,675,644318000,/os1_imu,0.0,0.0,0.0,0.0,-1.0,-1.0,-1.0,-1.0,-1.0,-1.0,-1.0,-1.0,-1.0,-0.0001331580545039619,0.004394215798630743,0.024767398137736915,0.0006,0.0,0.0,0.0,0.0006,0.0,0.0,0.0,0.0006,-0.9792284790039062,1.7788918334960937,8.71489404296875,0.01,0.0,0.0,0.0,0.01,0.0,0.0,0.0,0.01
1573857272.8431673,58603,675,654318030,/os1_imu,0.0,0.0,0.0,0.0,-1.0,-1.0,-1.0,-1.0,-1.0,-1.0,-1.0,-1.0,-1.0,0.003994741635118857,0.009321063815277333,0.024101607865217107,0.0006,0.0,0.0,0.0,0.0006,0.0,0.0,0.0,0.0006,-0.8116343627929687,1.7214309936523438,8.63109698486328,0.01,0.0,0.0,0.0,0.01,0.0,0.0,0.0,0.01
1573857272.8535242,58604,675,664318000,/os1_imu,0.0,0.0,0.0,0.0,-1.0,-1.0,-1.0,-1.0,-1.0,-1.0,-1.0,-1.0,-1.0,0.002663161090079238,0.0,0.018642127630554665,0.0006,0.0,0.0,0.0,0.0006,0.0,0.0,0.0,0.0006,-1.0941501586914062,1.7812860351562498,8.616731774902343,0.01,0.0,0.0,0.0,0.01,0.0,0.0,0.0,0.01
1573857272.8744414,58605,675,674318330,/os1_imu,0.0,0.0,0.0,0.0,-1.0,-1.0,-1.0,-1.0,-1.0,-1.0,-1.0,-1.0,-1.0,-0.0010652644360316951,0.0007989483270237714,0.015845808485971467,0.0006,0.0,0.0,0.0,0.0006,0.0,0.0,0.0,0.0006,-1.0941501586914062,1.7908628417968748,8.765172277832031,0.01,0.0,0.0,0.0,0.01,0.0,0.0,0.0,0.01
1573857272.8748565,58606,675,684318420,/os1_imu,0.0,0.0,0.0,0.0,-1.0,-1.0,-1.0,-1.0,-1.0,-1.0,-1.0,-1.0,-1.0,-0.0055926382891664,0.0,0.014114753777419962,0.0006,0.0,0.0,0.0,0.0006,0.0,0.0,0.0,0.0006,-1.1156979736328125,1.8315642700195311,8.619125976562499,0.01,0.0,0.0,0.0,0.01,0.0,0.0,0.0,0.01
1573857272.8833299,58607,675,694318420,/os1_imu,0.0,0.0,0.0,0.0,-1.0,-1.0,-1.0,-1.0,-1.0,-1.0,-1.0,-1.0,-1.0,-0.010253170196805066,-0.0011984224905356572,0.020106866230098247,0.0006,0.0,0.0,0.0,0.0006,0.0,0.0,0.0,0.0006,-0.8643067993164062,1.6639701538085936,8.52335791015625,0.01,0.0,0.0,0.0,0.01,0.0,0.0,0.0,0.01
1573857272.8933156,58608,675,704318170,/os1_imu,0.0,0.0,0.0,0.0,-1.0,-1.0,-1.0,-1.0,-1.0,-1.0,-1.0,-1.0,-1.0,-0.0035952674716069714,0.0,0.0195742340120824,0.0006,0.0,0.0,0.0,0.0006,0.0,0.0,0.0,0.0006,-0.9935936889648437,1.8507178833007811,8.609549169921875,0.01,0.0,0.0,0.0,0.01,0.0,0.0,0.0,0.01
1573857272.9035563,58609,675,714318350,/os1_imu,0.0,0.0,0.0,0.0,-1.0,-1.0,-1.0,-1.0,-1.0,-1.0,-1.0,-1.0,-1.0,-0.009187905760773371,-0.006524744670694133,0.012783173232380343,0.0006,0.0,0.0,0.0,0.0006,0.0,0.0,0.0,0.0006,-1.0606313354492187,1.8124106567382812,8.66940421142578,0.01,0.0,0.0,0.0,0.01,0.0,0.0,0.0,0.01
1573857272.9132488,58610,675,724318300,/os1_imu,0.0,0.0,0.0,0.0,-1.0,-1.0,-1.0,-1.0,-1.0,-1.0,-1.0,-1.0,-1.0,-0.014381069886427886,-0.0023968449810713144,0.011984224905356573,0.0006,0.0,0.0,0.0,0.0006,0.0,0.0,0.0,0.0006,-1.0103531005859374,1.5610194824218748,8.674192614746094,0.01,0.0,0.0,0.0,0.01,0.0,0.0,0.0,0.01
1573857272.9236407,58611,675,734318420,/os1_imu,0.0,0.0,0.0,0.0,-1.0,-1.0,-1.0,-1.0,-1.0,-1.0,-1.0,-1.0,-1.0,-0.015446334322459582,0.0007989483270237714,0.014247911831923924,0.0006,0.0,0.0,0.0,0.0006,0.0,0.0,0.0,0.0006,-0.8834604125976562,1.5897499023437498,8.640673791503906,0.01,0.0,0.0,0.0,0.01,0.0,0.0,0.0,0.01
1573857272.9336917,58612,675,744318070,/os1_imu,0.0,0.0,0.0,0.0,-1.0,-1.0,-1.0,-1.0,-1.0,-1.0,-1.0,-1.0,-1.0,-0.018375811521546742,0.005858954398174323,0.014913702104443732,0.0006,0.0,0.0,0.0,0.0006,0.0,0.0,0.0,0.0006,-0.7661445312499999,1.5394716674804687,8.635885388183594,0.01,0.0,0.0,0.0,0.01,0.0,0.0,0.0,0.01
1573857272.944194,58613,675,754318420,/os1_imu,0.0,0.0,0.0,0.0,-1.0,-1.0,-1.0,-1.0,-1.0,-1.0,-1.0,-1.0,-1.0,-0.014247911831923924,0.01038632825130903,0.012250541014364496,0.0006,0.0,0.0,0.0,0.0006,0.0,0.0,0.0,0.0006,-0.8044517578125,1.70467158203125,8.580818749999999,0.01,0.0,0.0,0.0,0.01,0.0,0.0,0.0,0.01
1573857272.9540493,58614,675,764318290,/os1_imu,0.0,0.0,0.0,0.0,-1.0,-1.0,-1.0,-1.0,-1.0,-1.0,-1.0,-1.0,-1.0,-0.017710021249026934,0.013315805450396189,0.012117382959860534,0.0006,0.0,0.0,0.0,0.0006,0.0,0.0,0.0,0.0006,-1.0941501586914062,1.3000515014648437,8.59997236328125,0.01,0.0,0.0,0.0,0.01,0.0,0.0,0.0,0.01
1573857272.9846854,58615,675,774318100,/os1_imu,0.0,0.0,0.0,0.0,-1.0,-1.0,-1.0,-1.0,-1.0,-1.0,-1.0,-1.0,-1.0,-0.01731054708551505,0.0022636869265673524,0.007590009106725828,0.0006,0.0,0.0,0.0,0.0006,0.0,0.0,0.0,0.0006,-1.0917559570312498,1.446097802734375,8.647856396484375,0.01,0.0,0.0,0.0,0.01,0.0,0.0,0.0,0.01
1573857272.985153,58616,675,784318030,/os1_imu,0.0,0.0,0.0,0.0,-1.0,-1.0,-1.0,-1.0,-1.0,-1.0,-1.0,-1.0,-1.0,-0.02316950148368937,0.0029294771990871615,0.00905474770626941,0.0006,0.0,0.0,0.0,0.0006,0.0,0.0,0.0,0.0006,-0.8475473876953125,1.5418658691406248,8.473079675292968,0.01,0.0,0.0,0.0,0.01,0.0,0.0,0.0,0.01
1573857272.9851844,58617,675,794318110,/os1_imu,0.0,0.0,0.0,0.0,-1.0,-1.0,-1.0,-1.0,-1.0,-1.0,-1.0,-1.0,-1.0,-0.017843179303530896,0.004527373853134705,0.01038632825130903,0.0006,0.0,0.0,0.0,0.0006,0.0,0.0,0.0,0.0006,-0.842758984375,1.1755530151367186,8.48505068359375,0.01,0.0,0.0,0.0,0.01,0.0,0.0,0.0,0.01
1573857272.9934645,58618,675,804318420,/os1_imu,0.0,0.0,0.0,0.0,-1.0,-1.0,-1.0,-1.0,-1.0,-1.0,-1.0,-1.0,-1.0,-0.014647385995435809,0.0011984224905356572,0.00692421883420602,0.0006,0.0,0.0,0.0,0.0006,0.0,0.0,0.0,0.0006,-1.024718310546875,1.2282254516601563,8.458714465332031,0.01,0.0,0.0,0.0,0.01,0.0,0.0,0.0,0.01
1573857273.0032122,58619,675,814318030,/os1_imu,0.0,0.0,0.0,0.0,-1.0,-1.0,-1.0,-1.0,-1.0,-1.0,-1.0,-1.0,-1.0,-0.016378440703987314,0.002663161090079238,0.009187905760773371,0.0006,0.0,0.0,0.0,0.0006,0.0,0.0,0.0,0.0006,-0.9864110839843749,1.0773907470703123,8.489839086914062,0.01,0.0,0.0,0.0,0.01,0.0,0.0,0.0,0.01
1573857273.0131817,58620,675,824318340,/os1_imu,0.0,0.0,0.0,0.0,-1.0,-1.0,-1.0,-1.0,-1.0,-1.0,-1.0,-1.0,-1.0,-0.01691107292200316,0.005858954398174323,0.004527373853134705,0.0006,0.0,0.0,0.0,0.0006,0.0,0.0,0.0,0.0006,-0.9265560424804687,1.0271125122070313,8.547299926757812,0.01,0.0,0.0,0.0,0.01,0.0,0.0,0.0,0.01
1573857273.0237708,58621,675,834318020,/os1_imu,0.0,0.0,0.0,0.0,-1.0,-1.0,-1.0,-1.0,-1.0,-1.0,-1.0,-1.0,-1.0,-0.014247911831923924,0.009587379924285258,0.0055926382891664,0.0006,0.0,0.0,0.0,0.0006,0.0,0.0,0.0,0.0006,-0.967257470703125,0.8212111694335937,8.518569506835936,0.01,0.0,0.0,0.0,0.01,0.0,0.0,0.0,0.01
1573857273.0334566,58622,675,844318000,/os1_imu,0.0,0.0,0.0,0.0,-1.0,-1.0,-1.0,-1.0,-1.0,-1.0,-1.0,-1.0,-1.0,-0.011451592687340723,0.013981595722916,0.005858954398174323,0.0006,0.0,0.0,0.0,0.0006,0.0,0.0,0.0,0.0006,-0.9409212524414062,1.0869675537109373,8.367734802246094,0.01,0.0,0.0,0.0,0.01,0.0,0.0,0.0,0.01
1573857273.043473,58623,675,854318160,/os1_imu,0.0,0.0,0.0,0.0,-1.0,-1.0,-1.0,-1.0,-1.0,-1.0,-1.0,-1.0,-1.0,-0.011584750741844684,0.015845808485971467,0.009454221869781294,0.0006,0.0,0.0,0.0,0.0006,0.0,0.0,0.0,0.0006,-0.9983820922851562,0.9576806640625,8.556876733398436,0.01,0.0,0.0,0.0,0.01,0.0,0.0,0.0,0.01
1573857273.053479,58624,675,864318000,/os1_imu,0.0,0.0,0.0,0.0,-1.0,-1.0,-1.0,-1.0,-1.0,-1.0,-1.0,-1.0,-1.0,-0.009986854087797143,0.008522115488253561,0.0019973708175594286,0.0006,0.0,0.0,0.0,0.0006,0.0,0.0,0.0,0.0006,-1.254561669921875,0.8212111694335937,8.40125362548828,0.01,0.0,0.0,0.0,0.01,0.0,0.0,0.0,0.01
1573857273.063528,58625,675,874318390,/os1_imu,0.0,0.0,0.0,0.0,-1.0,-1.0,-1.0,-1.0,-1.0,-1.0,-1.0,-1.0,-1.0,-0.007856325215733753,0.00346210941710301,0.0015978966540475428,0.0006,0.0,0.0,0.0,0.0006,0.0,0.0,0.0,0.0006,-1.2880804931640624,0.8643067993164062,8.499415893554687,0.01,0.0,0.0,0.0,0.01,0.0,0.0,0.0,0.01
1573857273.0758126,58626,675,884318000,/os1_imu,0.0,0.0,0.0,0.0,-1.0,-1.0,-1.0,-1.0,-1.0,-1.0,-1.0,-1.0,-1.0,-0.007190534943213943,-0.0021305288720633903,0.004394215798630743,0.0006,0.0,0.0,0.0,0.0006,0.0,0.0,0.0,0.0006,-1.0845733520507812,0.7924807495117187,8.542511523437499,0.01,0.0,0.0,0.0,0.01,0.0,0.0,0.0,0.01
1573857273.0833786,58627,675,894318050,/os1_imu,0.0,0.0,0.0,0.0,-1.0,-1.0,-1.0,-1.0,-1.0,-1.0,-1.0,-1.0,-1.0,-0.0029294771990871615,0.0073236929977179045,0.009853696033293181,0.0006,0.0,0.0,0.0,0.0006,0.0,0.0,0.0,0.0006,-0.9552864624023437,0.7326257080078125,8.372523205566406,0.01,0.0,0.0,0.0,0.01,0.0,0.0,0.0,0.01
1573857273.09323,58628,675,904318170,/os1_imu,0.0,0.0,0.0,0.0,-1.0,-1.0,-1.0,-1.0,-1.0,-1.0,-1.0,-1.0,-1.0,0.0007989483270237714,0.004660531907638666,0.007856325215733753,0.0006,0.0,0.0,0.0,0.0006,0.0,0.0,0.0,0.0006,-1.2018892333984375,0.9169792358398436,8.580818749999999,0.01,0.0,0.0,0.0,0.01,0.0,0.0,0.0,0.01
1573857273.1032987,58629,675,914318040,/os1_imu,0.0,0.0,0.0,0.0,-1.0,-1.0,-1.0,-1.0,-1.0,-1.0,-1.0,-1.0,-1.0,0.001331580545039619,-0.0015978966540475428,0.004127899689622819,0.0006,0.0,0.0,0.0,0.0006,0.0,0.0,0.0,0.0006,-1.3287819213867187,0.7900865478515624,8.403647827148436,0.01,0.0,0.0,0.0,0.01,0.0,0.0,0.0,0.01
1573857273.1133306,58630,675,924318320,/os1_imu,0.0,0.0,0.0,0.0,-1.0,-1.0,-1.0,-1.0,-1.0,-1.0,-1.0,-1.0,-1.0,-0.0009321063815277333,0.0,0.005060006071150552,0.0006,0.0,0.0,0.0,0.0006,0.0,0.0,0.0,0.0006,-1.209071838378906,0.5770026000976562,8.537723120117187,0.01,0.0,0.0,0.0,0.01,0.0,0.0,0.0,0.01
1573857273.1234677,58631,675,934318000,/os1_imu,0.0,0.0,0.0,0.0,-1.0,-1.0,-1.0,-1.0,-1.0,-1.0,-1.0,-1.0,-1.0,0.0022636869265673524,-0.0031957933080950856,0.009986854087797143,0.0006,0.0,0.0,0.0,0.0006,0.0,0.0,0.0,0.0006,-1.180341418457031,0.7948749511718749,8.614337573242187,0.01,0.0,0.0,0.0,0.01,0.0,0.0,0.0,0.01
1573857273.1335108,58632,675,944318420,/os1_imu,0.0,0.0,0.0,0.0,-1.0,-1.0,-1.0,-1.0,-1.0,-1.0,-1.0,-1.0,-1.0,0.0023968449810713144,0.0027963191445832,0.01344896350490015,0.0006,0.0,0.0,0.0,0.0006,0.0,0.0,0.0,0.0006,-0.9337386474609375,0.7709329345703124,8.47786807861328,0.01,0.0,0.0,0.0,0.01,0.0,0.0,0.0,0.01
1573857273.1433423,58633,675,954318370,/os1_imu,0.0,0.0,0.0,0.0,-1.0,-1.0,-1.0,-1.0,-1.0,-1.0,-1.0,-1.0,-1.0,0.009454221869781294,0.0009321063815277333,0.010253170196805066,0.0006,0.0,0.0,0.0,0.0006,0.0,0.0,0.0,0.0006,-1.0295067138671874,0.6368576416015624,8.501810095214843,0.01,0.0,0.0,0.0,0.01,0.0,0.0,0.0,0.01
1573857273.15348,58634,675,964318000,/os1_imu,0.0,0.0,0.0,0.0,-1.0,-1.0,-1.0,-1.0,-1.0,-1.0,-1.0,-1.0,-1.0,0.007856325215733753,0.004394215798630743,0.009587379924285258,0.0006,0.0,0.0,0.0,0.0006,0.0,0.0,0.0,0.0006,-1.2976572998046874,0.737414111328125,8.501810095214843,0.01,0.0,0.0,0.0,0.01,0.0,0.0,0.0,0.01
1573857273.1841261,58635,675,974318410,/os1_imu,0.0,0.0,0.0,0.0,-1.0,-1.0,-1.0,-1.0,-1.0,-1.0,-1.0,-1.0,-1.0,0.009187905760773371,-0.0033289513625990473,0.007989483270237714,0.0006,0.0,0.0,0.0,0.0006,0.0,0.0,0.0,0.0006,-1.3239935180664062,0.7517793212890624,8.674192614746094,0.01,0.0,0.0,0.0,0.01,0.0,0.0,0.0,0.01
1573857273.1841455,58636,675,984318420,/os1_imu,0.0,0.0,0.0,0.0,-1.0,-1.0,-1.0,-1.0,-1.0,-1.0,-1.0,-1.0,-1.0,0.012250541014364496,-0.004527373853134705,0.007057376888709981,0.0006,0.0,0.0,0.0,0.0006,0.0,0.0,0.0,0.0006,-1.1372457885742187,0.6607996582031249,8.508992700195313,0.01,0.0,0.0,0.0,0.01,0.0,0.0,0.0,0.01
1573857273.184859,58637,675,994318060,/os1_imu,0.0,0.0,0.0,0.0,-1.0,-1.0,-1.0,-1.0,-1.0,-1.0,-1.0,-1.0,-1.0,0.017843179303530896,-0.012783173232380343,0.014913702104443732,0.0006,0.0,0.0,0.0,0.0006,0.0,0.0,0.0,0.0006,-1.16837041015625,0.8259995727539062,8.422801440429687,0.01,0.0,0.0,0.0,0.01,0.0,0.0,0.0,0.01
1573857273.193587,58638,676,4318320,/os1_imu,0.0,0.0,0.0,0.0,-1.0,-1.0,-1.0,-1.0,-1.0,-1.0,-1.0,-1.0,-1.0,0.023835291756209184,-0.014913702104443732,0.009187905760773371,0.0006,0.0,0.0,0.0,0.0006,0.0,0.0,0.0,0.0006,-1.1180921752929687,0.9002198242187499,8.480262280273436,0.01,0.0,0.0,0.0,0.01,0.0,0.0,0.0,0.01
1573857273.203219,58639,676,14318000,/os1_imu,0.0,0.0,0.0,0.0,-1.0,-1.0,-1.0,-1.0,-1.0,-1.0,-1.0,-1.0,-1.0,0.022104237047657675,-0.019174759848570515,0.005459480234662438,0.0006,0.0,0.0,0.0,0.0006,0.0,0.0,0.0,0.0006,-1.209071838378906,0.8188169677734375,8.453926062011718,0.01,0.0,0.0,0.0,0.01,0.0,0.0,0.0,0.01
1573857273.213076,58640,676,24318280,/os1_imu,0.0,0.0,0.0,0.0,-1.0,-1.0,-1.0,-1.0,-1.0,-1.0,-1.0,-1.0,-1.0,0.020506340393610132,-0.017177389031011087,0.00346210941710301,0.0006,0.0,0.0,0.0,0.0006,0.0,0.0,0.0,0.0006,-0.9409212524414062,0.9002198242187499,8.588001354980468,0.01,0.0,0.0,0.0,0.01,0.0,0.0,0.0,0.01
1573857273.2234066,58641,676,34318030,/os1_imu,0.0,0.0,0.0,0.0,-1.0,-1.0,-1.0,-1.0,-1.0,-1.0,-1.0,-1.0,-1.0,0.022770027320177483,-0.00972053797878922,0.0015978966540475428,0.0006,0.0,0.0,0.0,0.0006,0.0,0.0,0.0,0.0006,-0.9097966308593749,1.0342951171875,8.48505068359375,0.01,0.0,0.0,0.0,0.01,0.0,0.0,0.0,0.01
1573857273.2335222,58642,676,44318020,/os1_imu,0.0,0.0,0.0,0.0,-1.0,-1.0,-1.0,-1.0,-1.0,-1.0,-1.0,-1.0,-1.0,0.022237395102161637,0.006391586616190171,0.012916331286884304,0.0006,0.0,0.0,0.0,0.0006,0.0,0.0,0.0,0.0006,-0.7805097412109374,1.0342951171875,8.564059338378906,0.01,0.0,0.0,0.0,0.01,0.0,0.0,0.0,0.01
1573857273.243398,58643,676,54318320,/os1_imu,0.0,0.0,0.0,0.0,-1.0,-1.0,-1.0,-1.0,-1.0,-1.0,-1.0,-1.0,-1.0,0.026631610900792378,-0.0001331580545039619,0.008921589651765448,0.0006,0.0,0.0,0.0,0.0006,0.0,0.0,0.0,0.0006,-0.8307879760742187,1.1109095703125,8.40125362548828,0.01,0.0,0.0,0.0,0.01,0.0,0.0,0.0,0.01
1573857273.2532358,58644,676,64318030,/os1_imu,0.0,0.0,0.0,0.0,-1.0,-1.0,-1.0,-1.0,-1.0,-1.0,-1.0,-1.0,-1.0,0.028495823663847848,-0.01384843766841204,0.004793689962142629,0.0006,0.0,0.0,0.0,0.0006,0.0,0.0,0.0,0.0006,-1.01514150390625,1.2976572998046874,8.528146313476562,0.01,0.0,0.0,0.0,0.01,0.0,0.0,0.0,0.01
1573857273.2636516,58645,676,74318150,/os1_imu,0.0,0.0,0.0,0.0,-1.0,-1.0,-1.0,-1.0,-1.0,-1.0,-1.0,-1.0,-1.0,0.026232136737280493,-0.02037318233910617,0.001331580545039619,0.0006,0.0,0.0,0.0,0.0006,0.0,0.0,0.0,0.0006,-0.8643067993164062,1.199495031738281,8.451531860351562,0.01,0.0,0.0,0.0,0.01,0.0,0.0,0.0,0.01
1573857273.273255,58646,676,84318410,/os1_imu,0.0,0.0,0.0,0.0,-1.0,-1.0,-1.0,-1.0,-1.0,-1.0,-1.0,-1.0,-1.0,0.027297401173312193,-0.00905474770626941,0.005725796343670361,0.0006,0.0,0.0,0.0,0.0006,0.0,0.0,0.0,0.0006,-0.5626373901367188,1.0989385620117187,8.468291271972657,0.01,0.0,0.0,0.0,0.01,0.0,0.0,0.0,0.01
1573857273.2833245,58647,676,94318410,/os1_imu,0.0,0.0,0.0,0.0,-1.0,-1.0,-1.0,-1.0,-1.0,-1.0,-1.0,-1.0,-1.0,0.02716424311880823,0.0014647385995435807,0.007723167161229791,0.0006,0.0,0.0,0.0,0.0006,0.0,0.0,0.0,0.0006,-0.6248866333007812,1.5873557006835937,8.473079675292968,0.01,0.0,0.0,0.0,0.01,0.0,0.0,0.0,0.01
1573857273.2933645,58648,676,104318020,/os1_imu,0.0,0.0,0.0,0.0,-1.0,-1.0,-1.0,-1.0,-1.0,-1.0,-1.0,-1.0,-1.0,0.028362665609343887,-0.004660531907638666,0.004527373853134705,0.0006,0.0,0.0,0.0,0.0006,0.0,0.0,0.0,0.0006,-0.8858546142578124,1.3144167114257812,8.535328918457031,0.01,0.0,0.0,0.0,0.01,0.0,0.0,0.0,0.01
1573857273.3032506,58649,676,114318020,/os1_imu,0.0,0.0,0.0,0.0,-1.0,-1.0,-1.0,-1.0,-1.0,-1.0,-1.0,-1.0,-1.0,0.02876213977285577,-0.011717908796348646,-0.0023968449810713144,0.0006,0.0,0.0,0.0,0.0006,0.0,0.0,0.0,0.0006,-0.833182177734375,1.3958195678710936,8.413224633789062,0.01,0.0,0.0,0.0,0.01,0.0,0.0,0.0,0.01
1573857273.3131552,58650,676,124318000,/os1_imu,0.0,0.0,0.0,0.0,-1.0,-1.0,-1.0,-1.0,-1.0,-1.0,-1.0,-1.0,-1.0,0.02356897564720126,-0.013049489341388266,-0.003062635253591124,0.0006,0.0,0.0,0.0,0.0006,0.0,0.0,0.0,0.0006,-0.6105214233398437,1.5275006591796874,8.47786807861328,0.01,0.0,0.0,0.0,0.01,0.0,0.0,0.0,0.01
1573857273.323162,58651,676,134318040,/os1_imu,0.0,0.0,0.0,0.0,-1.0,-1.0,-1.0,-1.0,-1.0,-1.0,-1.0,-1.0,-1.0,0.022636869265673522,-0.004660531907638666,-0.0006657902725198095,0.0006,0.0,0.0,0.0,0.0006,0.0,0.0,0.0,0.0006,-0.49320554199218747,1.4006079711914061,8.492233288574218,0.01,0.0,0.0,0.0,0.01,0.0,0.0,0.0,0.01
1573857273.3333733,58652,676,144318340,/os1_imu,0.0,0.0,0.0,0.0,-1.0,-1.0,-1.0,-1.0,-1.0,-1.0,-1.0,-1.0,-1.0,0.025566346464760685,0.013049489341388266,0.0035952674716069714,0.0006,0.0,0.0,0.0,0.0006,0.0,0.0,0.0,0.0006,-0.45010991210937495,1.369483349609375,8.374917407226562,0.01,0.0,0.0,0.0,0.01,0.0,0.0,0.0,0.01
1573857273.343759,58653,676,154318090,/os1_imu,0.0,0.0,0.0,0.0,-1.0,-1.0,-1.0,-1.0,-1.0,-1.0,-1.0,-1.0,-1.0,0.0251668723012488,0.013049489341388266,0.0029294771990871615,0.0006,0.0,0.0,0.0,0.0006,0.0,0.0,0.0,0.0006,-0.6536170532226562,1.6711527587890624,8.310273962402343,0.01,0.0,0.0,0.0,0.01,0.0,0.0,0.0,0.01
1573857273.3538613,58654,676,164317990,/os1_imu,0.0,0.0,0.0,0.0,-1.0,-1.0,-1.0,-1.0,-1.0,-1.0,-1.0,-1.0,-1.0,0.02316950148368937,0.001731054708551505,-0.0011984224905356572,0.0006,0.0,0.0,0.0,0.0006,0.0,0.0,0.0,0.0006,-0.97683427734375,1.6424223388671875,8.501810095214843,0.01,0.0,0.0,0.0,0.01,0.0,0.0,0.0,0.01
1573857273.3684022,58655,676,174318000,/os1_imu,0.0,0.0,0.0,0.0,-1.0,-1.0,-1.0,-1.0,-1.0,-1.0,-1.0,-1.0,-1.0,0.018508969576050704,0.0007989483270237714,-0.0066579027251980945,0.0006,0.0,0.0,0.0,0.0006,0.0,0.0,0.0,0.0006,-0.9792284790039062,1.458068811035156,8.532934716796875,0.01,0.0,0.0,0.0,0.01,0.0,0.0,0.0,0.01
1573857273.3733501,58656,676,184318030,/os1_imu,0.0,0.0,0.0,0.0,-1.0,-1.0,-1.0,-1.0,-1.0,-1.0,-1.0,-1.0,-1.0,0.01744370514001901,0.0027963191445832,-0.0049268480166465905,0.0006,0.0,0.0,0.0,0.0006,0.0,0.0,0.0,0.0006,-0.7326257080078125,1.448492004394531,8.580818749999999,0.01,0.0,0.0,0.0,0.01,0.0,0.0,0.0,0.01
1573857273.3833559,58657,676,194318360,/os1_imu,0.0,0.0,0.0,0.0,-1.0,-1.0,-1.0,-1.0,-1.0,-1.0,-1.0,-1.0,-1.0,0.019973708175594285,0.0055926382891664,0.0009321063815277333,0.0006,0.0,0.0,0.0,0.0006,0.0,0.0,0.0,0.0006,-0.7565677246093749,1.5514426757812498,8.465897070312499,0.01,0.0,0.0,0.0,0.01,0.0,0.0,0.0,0.01
1573857273.3934038,58658,676,204318410,/os1_imu,0.0,0.0,0.0,0.0,-1.0,-1.0,-1.0,-1.0,-1.0,-1.0,-1.0,-1.0,-1.0,0.019840550121090324,0.0029294771990871615,-0.0015978966540475428,0.0006,0.0,0.0,0.0,0.0006,0.0,0.0,0.0,0.0006,-0.9313444458007812,1.599326708984375,8.29351455078125,0.01,0.0,0.0,0.0,0.01,0.0,0.0,0.0,0.01
1573857273.4035473,58659,676,214318090,/os1_imu,0.0,0.0,0.0,0.0,-1.0,-1.0,-1.0,-1.0,-1.0,-1.0,-1.0,-1.0,-1.0,0.015180018213451656,0.0022636869265673524,-0.004527373853134705,0.0006,0.0,0.0,0.0,0.0006,0.0,0.0,0.0,0.0006,-1.0007762939453124,1.66636435546875,8.499415893554687,0.01,0.0,0.0,0.0,0.01,0.0,0.0,0.0,0.01
1573857273.4134753,58660,676,224318410,/os1_imu,0.0,0.0,0.0,0.0,-1.0,-1.0,-1.0,-1.0,-1.0,-1.0,-1.0,-1.0,-1.0,0.01344896350490015,-0.0009321063815277333,-0.007190534943213943,0.0006,0.0,0.0,0.0,0.0006,0.0,0.0,0.0,0.0006,-0.8930372192382812,1.4341267944335936,8.552088330078124,0.01,0.0,0.0,0.0,0.01,0.0,0.0,0.0,0.01
1573857273.4232466,58661,676,234318040,/os1_imu,0.0,0.0,0.0,0.0,-1.0,-1.0,-1.0,-1.0,-1.0,-1.0,-1.0,-1.0,-1.0,0.009454221869781294,-0.0010652644360316951,-0.005326322180158476,0.0006,0.0,0.0,0.0,0.0006,0.0,0.0,0.0,0.0006,-0.8595183959960937,1.3718775512695311,8.549694128417968,0.01,0.0,0.0,0.0,0.01,0.0,0.0,0.0,0.01
1573857273.4334712,58662,676,244318020,/os1_imu,0.0,0.0,0.0,0.0,-1.0,-1.0,-1.0,-1.0,-1.0,-1.0,-1.0,-1.0,-1.0,0.0042610577441267805,0.010918960469324876,-0.0011984224905356572,0.0006,0.0,0.0,0.0,0.0006,0.0,0.0,0.0,0.0006,-0.8595183959960937,1.6927005737304686,8.465897070312499,0.01,0.0,0.0,0.0,0.01,0.0,0.0,0.0,0.01
1573857273.443767,58663,676,254317990,/os1_imu,0.0,0.0,0.0,0.0,-1.0,-1.0,-1.0,-1.0,-1.0,-1.0,-1.0,-1.0,-1.0,0.004527373853134705,0.006125270507182248,0.0003994741635118857,0.0006,0.0,0.0,0.0,0.0006,0.0,0.0,0.0,0.0006,-0.967257470703125,1.5538368774414062,8.427589843749999,0.01,0.0,0.0,0.0,0.01,0.0,0.0,0.0,0.01
1573857273.4538388,58664,676,264318410,/os1_imu,0.0,0.0,0.0,0.0,-1.0,-1.0,-1.0,-1.0,-1.0,-1.0,-1.0,-1.0,-1.0,0.007989483270237714,-0.0038615835806148956,-0.0014647385995435807,0.0006,0.0,0.0,0.0,0.0006,0.0,0.0,0.0,0.0006,-1.1611878051757811,1.5777788940429687,8.52335791015625,0.01,0.0,0.0,0.0,0.01,0.0,0.0,0.0,0.01
1573857273.4836833,58665,676,274317990,/os1_imu,0.0,0.0,0.0,0.0,-1.0,-1.0,-1.0,-1.0,-1.0,-1.0,-1.0,-1.0,-1.0,0.002530003035575276,-0.0083889574337496,-0.008522115488253561,0.0006,0.0,0.0,0.0,0.0006,0.0,0.0,0.0,0.0006,-1.0702081420898437,1.5227122558593749,8.571241943359375,0.01,0.0,0.0,0.0,0.01,0.0,0.0,0.0,0.01
1573857273.4837396,58666,676,284318010,/os1_imu,0.0,0.0,0.0,0.0,-1.0,-1.0,-1.0,-1.0,-1.0,-1.0,-1.0,-1.0,-1.0,0.0009321063815277333,-0.0038615835806148956,-0.0031957933080950856,0.0006,0.0,0.0,0.0,0.0006,0.0,0.0,0.0,0.0006,-0.97683427734375,1.4245499877929686,8.597578161621094,0.01,0.0,0.0,0.0,0.01,0.0,0.0,0.0,0.01
1573857273.4839141,58667,676,294318030,/os1_imu,0.0,0.0,0.0,0.0,-1.0,-1.0,-1.0,-1.0,-1.0,-1.0,-1.0,-1.0,-1.0,-0.00346210941710301,0.0014647385995435807,-0.0007989483270237714,0.0006,0.0,0.0,0.0,0.0006,0.0,0.0,0.0,0.0006,-1.0175357055664063,1.608903515625,8.568847741699217,0.01,0.0,0.0,0.0,0.01,0.0,0.0,0.0,0.01
1573857273.4934793,58668,676,304318410,/os1_imu,0.0,0.0,0.0,0.0,-1.0,-1.0,-1.0,-1.0,-1.0,-1.0,-1.0,-1.0,-1.0,-0.0006657902725198095,-0.00972053797878922,0.0038615835806148956,0.0006,0.0,0.0,0.0,0.0006,0.0,0.0,0.0,0.0006,-1.0845733520507812,1.5203180541992187,8.465897070312499,0.01,0.0,0.0,0.0,0.01,0.0,0.0,0.0,0.01
1573857273.5034072,58669,676,314318410,/os1_imu,0.0,0.0,0.0,0.0,-1.0,-1.0,-1.0,-1.0,-1.0,-1.0,-1.0,-1.0,-1.0,0.0029294771990871615,-0.019840550121090324,0.0009321063815277333,0.0006,0.0,0.0,0.0,0.0006,0.0,0.0,0.0,0.0006,-1.1348515869140625,1.4772224243164063,8.56166513671875,0.01,0.0,0.0,0.0,0.01,0.0,0.0,0.0,0.01
1573857273.5136845,58670,676,324318410,/os1_imu,0.0,0.0,0.0,0.0,-1.0,-1.0,-1.0,-1.0,-1.0,-1.0,-1.0,-1.0,-1.0,-0.001331580545039619,-0.023968449810713145,-0.0035952674716069714,0.0006,0.0,0.0,0.0,0.0006,0.0,0.0,0.0,0.0006,-0.9097966308593749,1.3623007446289062,8.683769421386717,0.01,0.0,0.0,0.0,0.01,0.0,0.0,0.0,0.01
1573857273.5233476,58671,676,334318030,/os1_imu,0.0,0.0,0.0,0.0,-1.0,-1.0,-1.0,-1.0,-1.0,-1.0,-1.0,-1.0,-1.0,-0.0018642127630554665,-0.01384843766841204,0.0002663161090079238,0.0006,0.0,0.0,0.0,0.0006,0.0,0.0,0.0,0.0006,-0.7709329345703124,1.467645617675781,8.731653454589843,0.01,0.0,0.0,0.0,0.01,0.0,0.0,0.0,0.01
1573857273.5334904,58672,676,344318410,/os1_imu,0.0,0.0,0.0,0.0,-1.0,-1.0,-1.0,-1.0,-1.0,-1.0,-1.0,-1.0,-1.0,-0.0035952674716069714,0.004127899689622819,0.0006657902725198095,0.0006,0.0,0.0,0.0,0.0006,0.0,0.0,0.0,0.0006,-0.8116343627929687,1.4221557861328125,8.700528833007812,0.01,0.0,0.0,0.0,0.01,0.0,0.0,0.0,0.01
1573857273.5433092,58673,676,354318040,/os1_imu,0.0,0.0,0.0,0.0,-1.0,-1.0,-1.0,-1.0,-1.0,-1.0,-1.0,-1.0,-1.0,-0.0033289513625990473,-0.002663161090079238,0.005725796343670361,0.0006,0.0,0.0,0.0,0.0006,0.0,0.0,0.0,0.0006,-0.8858546142578124,1.3862427612304686,8.43956085205078,0.01,0.0,0.0,0.0,0.01,0.0,0.0,0.0,0.01
1573857273.5532773,58674,676,364318020,/os1_imu,0.0,0.0,0.0,0.0,-1.0,-1.0,-1.0,-1.0,-1.0,-1.0,-1.0,-1.0,-1.0,-0.006125270507182248,-0.014247911831923924,0.0009321063815277333,0.0006,0.0,0.0,0.0,0.0006,0.0,0.0,0.0,0.0006,-0.9816226806640624,1.6256629272460936,8.705317236328124,0.01,0.0,0.0,0.0,0.01,0.0,0.0,0.0,0.01
1573857273.5714266,58675,676,374318260,/os1_imu,0.0,0.0,0.0,0.0,-1.0,-1.0,-1.0,-1.0,-1.0,-1.0,-1.0,-1.0,-1.0,-0.007190534943213943,-0.022903185374681445,-0.0009321063815277333,0.0006,0.0,0.0,0.0,0.0006,0.0,0.0,0.0,0.0006,-0.9648632690429687,1.3335703247070312,8.66940421142578,0.01,0.0,0.0,0.0,0.01,0.0,0.0,0.0,0.01
1573857273.5734844,58676,676,384318070,/os1_imu,0.0,0.0,0.0,0.0,-1.0,-1.0,-1.0,-1.0,-1.0,-1.0,-1.0,-1.0,-1.0,-0.010652644360316953,-0.015446334322459582,0.002530003035575276,0.0006,0.0,0.0,0.0,0.0006,0.0,0.0,0.0,0.0006,-0.7541735229492187,1.2593500732421874,8.508992700195313,0.01,0.0,0.0,0.0,0.01,0.0,0.0,0.0,0.01
1573857273.5836623,58677,676,394318410,/os1_imu,0.0,0.0,0.0,0.0,-1.0,-1.0,-1.0,-1.0,-1.0,-1.0,-1.0,-1.0,-1.0,-0.009587379924285258,-0.010120012142301104,0.005193164125654515,0.0006,0.0,0.0,0.0,0.0006,0.0,0.0,0.0,0.0006,-0.6272808349609375,1.3862427612304686,8.731653454589843,0.01,0.0,0.0,0.0,0.01,0.0,0.0,0.0,0.01
1573857273.5933137,58678,676,404318250,/os1_imu,0.0,0.0,0.0,0.0,-1.0,-1.0,-1.0,-1.0,-1.0,-1.0,-1.0,-1.0,-1.0,-0.004660531907638666,0.0,0.0042610577441267805,0.0006,0.0,0.0,0.0,0.0006,0.0,0.0,0.0,0.0006,-0.7661445312499999,1.2665326782226562,8.530540515136718,0.01,0.0,0.0,0.0,0.01,0.0,0.0,0.0,0.01
1573857273.6036215,58679,676,414318010,/os1_imu,0.0,0.0,0.0,0.0,-1.0,-1.0,-1.0,-1.0,-1.0,-1.0,-1.0,-1.0,-1.0,-0.007190534943213943,-0.0111852765783328,-0.0005326322180158476,0.0006,0.0,0.0,0.0,0.0006,0.0,0.0,0.0,0.0006,-0.9624690673828125,1.2832920898437499,8.544905725097657,0.01,0.0,0.0,0.0,0.01,0.0,0.0,0.0,0.01
1573857273.6137843,58680,676,424318150,/os1_imu,0.0,0.0,0.0,0.0,-1.0,-1.0,-1.0,-1.0,-1.0,-1.0,-1.0,-1.0,-1.0,-0.00905474770626941,-0.02090581455712202,-0.003994741635118857,0.0006,0.0,0.0,0.0,0.0006,0.0,0.0,0.0,0.0006,-0.7230489013671875,1.0797849487304687,8.774749084472656,0.01,0.0,0.0,0.0,0.01,0.0,0.0,0.0,0.01
1573857273.623755,58681,676,434318410,/os1_imu,0.0,0.0,0.0,0.0,-1.0,-1.0,-1.0,-1.0,-1.0,-1.0,-1.0,-1.0,-1.0,-0.004127899689622819,-0.011584750741844684,-0.0006657902725198095,0.0006,0.0,0.0,0.0,0.0006,0.0,0.0,0.0,0.0006,-0.6368576416015624,1.1420341918945311,8.590395556640624,0.01,0.0,0.0,0.0,0.01,0.0,0.0,0.0,0.01
1573857273.6343524,58682,676,444318020,/os1_imu,0.0,0.0,0.0,0.0,-1.0,-1.0,-1.0,-1.0,-1.0,-1.0,-1.0,-1.0,-1.0,-0.0042610577441267805,0.0009321063815277333,0.004793689962142629,0.0006,0.0,0.0,0.0,0.0006,0.0,0.0,0.0,0.0006,-0.5913678100585937,1.1540052001953125,8.765172277832031,0.01,0.0,0.0,0.0,0.01,0.0,0.0,0.0,0.01
1573857273.6442752,58683,676,454318010,/os1_imu,0.0,0.0,0.0,0.0,-1.0,-1.0,-1.0,-1.0,-1.0,-1.0,-1.0,-1.0,-1.0,-0.003994741635118857,0.009853696033293181,0.005992112452678286,0.0006,0.0,0.0,0.0,0.0006,0.0,0.0,0.0,0.0006,-0.6081272216796875,1.2306196533203124,8.470685473632813,0.01,0.0,0.0,0.0,0.01,0.0,0.0,0.0,0.01
1573857273.6535695,58684,676,464318020,/os1_imu,0.0,0.0,0.0,0.0,-1.0,-1.0,-1.0,-1.0,-1.0,-1.0,-1.0,-1.0,-1.0,-0.0014647385995435807,0.0003994741635118857,0.004660531907638666,0.0006,0.0,0.0,0.0,0.0006,0.0,0.0,0.0,0.0006,-1.0319009155273438,1.0175357055664063,8.647856396484375,0.01,0.0,0.0,0.0,0.01,0.0,0.0,0.0,0.01
1573857273.683614,58685,676,474318120,/os1_imu,0.0,0.0,0.0,0.0,-1.0,-1.0,-1.0,-1.0,-1.0,-1.0,-1.0,-1.0,-1.0,0.0007989483270237714,-0.0167779148674992,-0.0010652644360316951,0.0006,0.0,0.0,0.0,0.0006,0.0,0.0,0.0,0.0006,-0.9097966308593749,0.9169792358398436,8.633491186523438,0.01,0.0,0.0,0.0,0.01,0.0,0.0,0.0,0.01
1573857273.6836646,58686,676,484318410,/os1_imu,0.0,0.0,0.0,0.0,-1.0,-1.0,-1.0,-1.0,-1.0,-1.0,-1.0,-1.0,-1.0,-0.0035952674716069714,-0.008788431597261486,-0.0001331580545039619,0.0006,0.0,0.0,0.0,0.0006,0.0,0.0,0.0,0.0006,-0.7661445312499999,1.0726023437499999,8.590395556640624,0.01,0.0,0.0,0.0,0.01,0.0,0.0,0.0,0.01
1573857273.6843023,58687,676,494318000,/os1_imu,0.0,0.0,0.0,0.0,-1.0,-1.0,-1.0,-1.0,-1.0,-1.0,-1.0,-1.0,-1.0,-0.0035952674716069714,0.006125270507182248,0.0,0.0006,0.0,0.0,0.0,0.0006,0.0,0.0,0.0,0.0006,-0.7781155395507812,1.0797849487304687,8.796296899414061,0.01,0.0,0.0,0.0,0.01,0.0,0.0,0.0,0.01
1573857273.6939216,58688,676,504318140,/os1_imu,0.0,0.0,0.0,0.0,-1.0,-1.0,-1.0,-1.0,-1.0,-1.0,-1.0,-1.0,-1.0,-0.0018642127630554665,0.0042610577441267805,0.006391586616190171,0.0006,0.0,0.0,0.0,0.0006,0.0,0.0,0.0,0.0006,-0.7661445312499999,1.0342951171875,8.355763793945313,0.01,0.0,0.0,0.0,0.01,0.0,0.0,0.0,0.01
1573857273.703545,58689,676,514318020,/os1_imu,0.0,0.0,0.0,0.0,-1.0,-1.0,-1.0,-1.0,-1.0,-1.0,-1.0,-1.0,-1.0,0.004660531907638666,-0.005326322180158476,0.0011984224905356572,0.0006,0.0,0.0,0.0,0.0006,0.0,0.0,0.0,0.0006,-0.9888052856445312,1.0462661254882812,8.643067993164061,0.01,0.0,0.0,0.0,0.01,0.0,0.0,0.0,0.01
1573857273.7133372,58690,676,524318410,/os1_imu,0.0,0.0,0.0,0.0,-1.0,-1.0,-1.0,-1.0,-1.0,-1.0,-1.0,-1.0,-1.0,-0.0002663161090079238,-0.005858954398174323,-0.003994741635118857,0.0006,0.0,0.0,0.0,0.0006,0.0,0.0,0.0,0.0006,-0.9648632690429687,0.852335791015625,8.63827958984375,0.01,0.0,0.0,0.0,0.01,0.0,0.0,0.0,0.01
1573857273.7231913,58691,676,534318300,/os1_imu,0.0,0.0,0.0,0.0,-1.0,-1.0,-1.0,-1.0,-1.0,-1.0,-1.0,-1.0,-1.0,-0.0007989483270237714,-0.005858954398174323,-0.0042610577441267805,0.0006,0.0,0.0,0.0,0.0006,0.0,0.0,0.0,0.0006,-0.7398083129882812,1.0199299072265624,8.499415893554687,0.01,0.0,0.0,0.0,0.01,0.0,0.0,0.0,0.01
1573857273.7331617,58692,676,544318090,/os1_imu,0.0,0.0,0.0,0.0,-1.0,-1.0,-1.0,-1.0,-1.0,-1.0,-1.0,-1.0,-1.0,-0.0002663161090079238,0.01731054708551505,0.0019973708175594286,0.0006,0.0,0.0,0.0,0.0006,0.0,0.0,0.0,0.0006,-0.7829039428710937,0.8643067993164062,8.748412866210938,0.01,0.0,0.0,0.0,0.01,0.0,0.0,0.0,0.01
1573857273.743476,58693,676,554318410,/os1_imu,0.0,0.0,0.0,0.0,-1.0,-1.0,-1.0,-1.0,-1.0,-1.0,-1.0,-1.0,-1.0,0.0033289513625990473,0.015180018213451656,-0.0005326322180158476,0.0006,0.0,0.0,0.0,0.0006,0.0,0.0,0.0,0.0006,-0.7852981445312499,0.7829039428710937,8.511386901855468,0.01,0.0,0.0,0.0,0.01,0.0,0.0,0.0,0.01
1573857273.7539308,58694,676,564318410,/os1_imu,0.0,0.0,0.0,0.0,-1.0,-1.0,-1.0,-1.0,-1.0,-1.0,-1.0,-1.0,-1.0,0.008255799379245638,0.00346210941710301,-0.0003994741635118857,0.0006,0.0,0.0,0.0,0.0006,0.0,0.0,0.0,0.0006,-1.1180921752929687,0.8571241943359375,8.444349255371094,0.01,0.0,0.0,0.0,0.01,0.0,0.0,0.0,0.01
1573857273.7669535,58695,676,574318410,/os1_imu,0.0,0.0,0.0,0.0,-1.0,-1.0,-1.0,-1.0,-1.0,-1.0,-1.0,-1.0,-1.0,0.008522115488253561,-0.005992112452678286,-0.0018642127630554665,0.0006,0.0,0.0,0.0,0.0006,0.0,0.0,0.0,0.0006,-1.1037269653320312,0.967257470703125,8.441955053710936,0.01,0.0,0.0,0.0,0.01,0.0,0.0,0.0,0.01
1573857273.7733068,58696,676,584318410,/os1_imu,0.0,0.0,0.0,0.0,-1.0,-1.0,-1.0,-1.0,-1.0,-1.0,-1.0,-1.0,-1.0,0.009587379924285258,0.0009321063815277333,-0.002663161090079238,0.0006,0.0,0.0,0.0,0.0006,0.0,0.0,0.0,0.0006,-1.0319009155273438,0.8882488159179687,8.55448253173828,0.01,0.0,0.0,0.0,0.01,0.0,0.0,0.0,0.01
1573857273.7832105,58697,676,594318330,/os1_imu,0.0,0.0,0.0,0.0,-1.0,-1.0,-1.0,-1.0,-1.0,-1.0,-1.0,-1.0,-1.0,0.016644756812995237,0.009853696033293181,-0.0002663161090079238,0.0006,0.0,0.0,0.0,0.0006,0.0,0.0,0.0,0.0006,-0.8355763793945312,0.9959878906249999,8.513781103515624,0.01,0.0,0.0,0.0,0.01,0.0,0.0,0.0,0.01
1573857273.7933292,58698,676,604318010,/os1_imu,0.0,0.0,0.0,0.0,-1.0,-1.0,-1.0,-1.0,-1.0,-1.0,-1.0,-1.0,-1.0,0.013715279613908078,0.007590009106725828,0.0009321063815277333,0.0006,0.0,0.0,0.0,0.0006,0.0,0.0,0.0,0.0006,-0.9600748657226562,0.9074024291992187,8.406042028808594,0.01,0.0,0.0,0.0,0.01,0.0,0.0,0.0,0.01
1573857273.8033926,58699,676,614318010,/os1_imu,0.0,0.0,0.0,0.0,-1.0,-1.0,-1.0,-1.0,-1.0,-1.0,-1.0,-1.0,-1.0,0.019174759848570515,-0.0022636869265673524,0.0005326322180158476,0.0006,0.0,0.0,0.0,0.0006,0.0,0.0,0.0,0.0006,-1.1707646118164061,1.0845733520507812,8.542511523437499,0.01,0.0,0.0,0.0,0.01,0.0,0.0,0.0,0.01
1573857273.8136673,58700,676,624318280,/os1_imu,0.0,0.0,0.0,0.0,-1.0,-1.0,-1.0,-1.0,-1.0,-1.0,-1.0,-1.0,-1.0,0.0223705531566656,-0.004527373853134705,-0.004793689962142629,0.0006,0.0,0.0,0.0,0.0006,0.0,0.0,0.0,0.0006,-1.1324573852539062,0.9576806640625,8.420407238769531,0.01,0.0,0.0,0.0,0.01,0.0,0.0,0.0,0.01
1573857273.8236136,58701,676,634318020,/os1_imu,0.0,0.0,0.0,0.0,-1.0,-1.0,-1.0,-1.0,-1.0,-1.0,-1.0,-1.0,-1.0,0.017576863194522972,0.0003994741635118857,-0.0015978966540475428,0.0006,0.0,0.0,0.0,0.0006,0.0,0.0,0.0,0.0006,-0.8188169677734375,1.0199299072265624,8.394071020507813,0.01,0.0,0.0,0.0,0.01,0.0,0.0,0.0,0.01
1573857273.8337781,58702,676,644318410,/os1_imu,0.0,0.0,0.0,0.0,-1.0,-1.0,-1.0,-1.0,-1.0,-1.0,-1.0,-1.0,-1.0,0.02170476288414579,0.018508969576050704,0.0022636869265673524,0.0006,0.0,0.0,0.0,0.0006,0.0,0.0,0.0,0.0006,-0.9457096557617187,1.0223241088867188,8.499415893554687,0.01,0.0,0.0,0.0,0.01,0.0,0.0,0.0,0.01
1573857273.84406,58703,676,654318070,/os1_imu,0.0,0.0,0.0,0.0,-1.0,-1.0,-1.0,-1.0,-1.0,-1.0,-1.0,-1.0,-1.0,0.02503371424674484,0.023036343429185407,0.0010652644360316951,0.0006,0.0,0.0,0.0,0.0006,0.0,0.0,0.0,0.0006,-0.9528922607421875,1.2282254516601563,8.374917407226562,0.01,0.0,0.0,0.0,0.01,0.0,0.0,0.0,0.01
1573857273.853636,58704,676,664318410,/os1_imu,0.0,0.0,0.0,0.0,-1.0,-1.0,-1.0,-1.0,-1.0,-1.0,-1.0,-1.0,-1.0,0.028895297827359733,0.005992112452678286,0.0,0.0006,0.0,0.0,0.0,0.0006,0.0,0.0,0.0,0.0006,-1.2832920898437499,1.0414777221679687,8.276755139160155,0.01,0.0,0.0,0.0,0.01,0.0,0.0,0.0,0.01
1573857273.8820665,58705,676,674318280,/os1_imu,0.0,0.0,0.0,0.0,-1.0,-1.0,-1.0,-1.0,-1.0,-1.0,-1.0,-1.0,-1.0,0.028096349500335963,-0.006524744670694133,0.0001331580545039619,0.0006,0.0,0.0,0.0,0.0006,0.0,0.0,0.0,0.0006,-1.158793603515625,1.0821791503906248,8.449137658691406,0.01,0.0,0.0,0.0,0.01,0.0,0.0,0.0,0.01
1573857273.8821168,58706,676,684318030,/os1_imu,0.0,0.0,0.0,0.0,-1.0,-1.0,-1.0,-1.0,-1.0,-1.0,-1.0,-1.0,-1.0,0.026232136737280493,0.0018642127630554665,-0.0002663161090079238,0.0006,0.0,0.0,0.0,0.0006,0.0,0.0,0.0,0.0006,-1.0127473022460938,1.2401964599609374,8.48505068359375,0.01,0.0,0.0,0.0,0.01,0.0,0.0,0.0,0.01
1573857273.8838367,58707,676,694317990,/os1_imu,0.0,0.0,0.0,0.0,-1.0,-1.0,-1.0,-1.0,-1.0,-1.0,-1.0,-1.0,-1.0,0.02436792397422503,0.01890844373956259,0.001331580545039619,0.0006,0.0,0.0,0.0,0.0006,0.0,0.0,0.0,0.0006,-0.8810662109374999,1.2521674682617188,8.310273962402343,0.01,0.0,0.0,0.0,0.01,0.0,0.0,0.0,0.01
1573857273.8939583,58708,676,704318390,/os1_imu,0.0,0.0,0.0,0.0,-1.0,-1.0,-1.0,-1.0,-1.0,-1.0,-1.0,-1.0,-1.0,0.030626352535911235,0.014247911831923924,0.005193164125654515,0.0006,0.0,0.0,0.0,0.0006,0.0,0.0,0.0,0.0006,-1.1707646118164061,1.4341267944335936,8.343792785644531,0.01,0.0,0.0,0.0,0.01,0.0,0.0,0.0,0.01
1573857273.9035115,58709,676,714318410,/os1_imu,0.0,0.0,0.0,0.0,-1.0,-1.0,-1.0,-1.0,-1.0,-1.0,-1.0,-1.0,-1.0,0.030892668644919165,0.0001331580545039619,-0.0002663161090079238,0.0006,0.0,0.0,0.0,0.0006,0.0,0.0,0.0,0.0006,-1.2641384765625,1.484405029296875,8.13310303955078,0.01,0.0,0.0,0.0,0.01,0.0,0.0,0.0,0.01
1573857273.9132652,58710,676,724318090,/os1_imu,0.0,0.0,0.0,0.0,-1.0,-1.0,-1.0,-1.0,-1.0,-1.0,-1.0,-1.0,-1.0,0.026498452846288417,-0.008122641324741676,-0.0027963191445832,0.0006,0.0,0.0,0.0,0.0006,0.0,0.0,0.0,0.0006,-1.1875240234375,1.35990654296875,8.501810095214843,0.01,0.0,0.0,0.0,0.01,0.0,0.0,0.0,0.01
1573857273.9237597,58711,676,734318020,/os1_imu,0.0,0.0,0.0,0.0,-1.0,-1.0,-1.0,-1.0,-1.0,-1.0,-1.0,-1.0,-1.0,0.024634240083232953,0.0038615835806148956,-0.0002663161090079238,0.0006,0.0,0.0,0.0,0.0006,0.0,0.0,0.0,0.0006,-0.9361328491210937,1.4437036010742186,8.473079675292968,0.01,0.0,0.0,0.0,0.01,0.0,0.0,0.0,0.01
1573857273.933591,58712,676,744318410,/os1_imu,0.0,0.0,0.0,0.0,-1.0,-1.0,-1.0,-1.0,-1.0,-1.0,-1.0,-1.0,-1.0,0.02037318233910617,0.0223705531566656,-0.0023968449810713144,0.0006,0.0,0.0,0.0,0.0006,0.0,0.0,0.0,0.0006,-1.0534487304687499,1.5490484741210937,8.415618835449218,0.01,0.0,0.0,0.0,0.01,0.0,0.0,0.0,0.01
1573857273.9433095,58713,676,754318390,/os1_imu,0.0,0.0,0.0,0.0,-1.0,-1.0,-1.0,-1.0,-1.0,-1.0,-1.0,-1.0,-1.0,0.01731054708551505,0.02769687533682408,0.0006657902725198095,0.0006,0.0,0.0,0.0,0.0006,0.0,0.0,0.0,0.0006,-1.1372457885742187,1.5155296508789062,8.413224633789062,0.01,0.0,0.0,0.0,0.01,0.0,0.0,0.0,0.01
1573857273.9536386,58714,676,764318090,/os1_imu,0.0,0.0,0.0,0.0,-1.0,-1.0,-1.0,-1.0,-1.0,-1.0,-1.0,-1.0,-1.0,0.0251668723012488,0.007057376888709981,-0.0033289513625990473,0.0006,0.0,0.0,0.0,0.0006,0.0,0.0,0.0,0.0006,-1.5107412475585937,1.5298948608398437,8.389282617187499,0.01,0.0,0.0,0.0,0.01,0.0,0.0,0.0,0.01
1573857273.9837914,58715,676,774318000,/os1_imu,0.0,0.0,0.0,0.0,-1.0,-1.0,-1.0,-1.0,-1.0,-1.0,-1.0,-1.0,-1.0,0.020106866230098247,-0.00692421883420602,-0.0035952674716069714,0.0006,0.0,0.0,0.0,0.0006,0.0,0.0,0.0,0.0006,-1.3551181396484375,1.6160861206054686,8.48505068359375,0.01,0.0,0.0,0.0,0.01,0.0,0.0,0.0,0.01
1573857273.9838762,58716,676,784318410,/os1_imu,0.0,0.0,0.0,0.0,-1.0,-1.0,-1.0,-1.0,-1.0,-1.0,-1.0,-1.0,-1.0,0.017710021249026934,0.0009321063815277333,-0.00346210941710301,0.0006,0.0,0.0,0.0,0.0006,0.0,0.0,0.0,0.0006,-1.2785036865234374,1.6615759521484375,8.595183959960938,0.01,0.0,0.0,0.0,0.01,0.0,0.0,0.0,0.01
1573857273.9839602,58717,676,794318250,/os1_imu,0.0,0.0,0.0,0.0,-1.0,-1.0,-1.0,-1.0,-1.0,-1.0,-1.0,-1.0,-1.0,0.010785802414820914,0.013315805450396189,0.001331580545039619,0.0006,0.0,0.0,0.0,0.0006,0.0,0.0,0.0,0.0006,-1.0845733520507812,1.637633935546875,8.463502868652343,0.01,0.0,0.0,0.0,0.01,0.0,0.0,0.0,0.01
1573857273.9938226,58718,676,804318410,/os1_imu,0.0,0.0,0.0,0.0,-1.0,-1.0,-1.0,-1.0,-1.0,-1.0,-1.0,-1.0,-1.0,0.015579492376963544,0.015845808485971467,-0.0006657902725198095,0.0006,0.0,0.0,0.0,0.0006,0.0,0.0,0.0,0.0006,-1.3383587280273437,1.6543933471679686,8.473079675292968,0.01,0.0,0.0,0.0,0.01,0.0,0.0,0.0,0.01
1573857274.0034356,58719,676,814318290,/os1_imu,0.0,0.0,0.0,0.0,-1.0,-1.0,-1.0,-1.0,-1.0,-1.0,-1.0,-1.0,-1.0,0.010652644360316953,0.0019973708175594286,-0.004127899689622819,0.0006,0.0,0.0,0.0,0.0006,0.0,0.0,0.0,0.0006,-1.5011644409179687,1.675941162109375,8.391676818847655,0.01,0.0,0.0,0.0,0.01,0.0,0.0,0.0,0.01
1573857274.0135221,58720,676,824318410,/os1_imu,0.0,0.0,0.0,0.0,-1.0,-1.0,-1.0,-1.0,-1.0,-1.0,-1.0,-1.0,-1.0,0.0073236929977179045,-0.007590009106725828,-0.008655273542757524,0.0006,0.0,0.0,0.0,0.0006,0.0,0.0,0.0,0.0006,-1.3862427612304686,1.5514426757812498,8.580818749999999,0.01,0.0,0.0,0.0,0.01,0.0,0.0,0.0,0.01
1573857274.0234885,58721,676,834318030,/os1_imu,0.0,0.0,0.0,0.0,-1.0,-1.0,-1.0,-1.0,-1.0,-1.0,-1.0,-1.0,-1.0,0.00346210941710301,-0.003728425526110933,-0.005326322180158476,0.0006,0.0,0.0,0.0,0.0006,0.0,0.0,0.0,0.0006,-1.1875240234375,1.5538368774414062,8.52335791015625,0.01,0.0,0.0,0.0,0.01,0.0,0.0,0.0,0.01
1573857274.0334482,58722,676,844318020,/os1_imu,0.0,0.0,0.0,0.0,-1.0,-1.0,-1.0,-1.0,-1.0,-1.0,-1.0,-1.0,-1.0,0.005193164125654515,0.016378440703987314,-0.0022636869265673524,0.0006,0.0,0.0,0.0,0.0006,0.0,0.0,0.0,0.0006,-1.1923124267578125,1.5131354492187499,8.449137658691406,0.01,0.0,0.0,0.0,0.01,0.0,0.0,0.0,0.01
1573857274.0434208,58723,676,854318410,/os1_imu,0.0,0.0,0.0,0.0,-1.0,-1.0,-1.0,-1.0,-1.0,-1.0,-1.0,-1.0,-1.0,0.004394215798630743,0.015845808485971467,-0.0010652644360316951,0.0006,0.0,0.0,0.0,0.0006,0.0,0.0,0.0,0.0006,-1.3742717529296875,1.6639701538085936,8.468291271972657,0.01,0.0,0.0,0.0,0.01,0.0,0.0,0.0,0.01
1573857274.0535293,58724,676,864318370,/os1_imu,0.0,0.0,0.0,0.0,-1.0,-1.0,-1.0,-1.0,-1.0,-1.0,-1.0,-1.0,-1.0,0.0049268480166465905,0.0035952674716069714,-0.0033289513625990473,0.0006,0.0,0.0,0.0,0.0006,0.0,0.0,0.0,0.0006,-1.7381904052734374,1.7022773803710936,8.341398583984375,0.01,0.0,0.0,0.0,0.01,0.0,0.0,0.0,0.01
1573857274.0736437,58725,676,874318040,/os1_imu,0.0,0.0,0.0,0.0,-1.0,-1.0,-1.0,-1.0,-1.0,-1.0,-1.0,-1.0,-1.0,0.0010652644360316951,-0.010918960469324876,-0.008522115488253561,0.0006,0.0,0.0,0.0,0.0006,0.0,0.0,0.0,0.0006,-1.678335363769531,1.5011644409179687,8.470685473632813,0.01,0.0,0.0,0.0,0.01,0.0,0.0,0.0,0.01
1573857274.0743384,58726,676,884318310,/os1_imu,0.0,0.0,0.0,0.0,-1.0,-1.0,-1.0,-1.0,-1.0,-1.0,-1.0,-1.0,-1.0,0.0003994741635118857,-0.009187905760773371,-0.0066579027251980945,0.0006,0.0,0.0,0.0,0.0006,0.0,0.0,0.0,0.0006,-1.429338391113281,1.5298948608398437,8.451531860351562,0.01,0.0,0.0,0.0,0.01,0.0,0.0,0.0,0.01
1573857274.0833554,58727,676,894318410,/os1_imu,0.0,0.0,0.0,0.0,-1.0,-1.0,-1.0,-1.0,-1.0,-1.0,-1.0,-1.0,-1.0,-0.0005326322180158476,-0.0002663161090079238,-0.0042610577441267805,0.0006,0.0,0.0,0.0,0.0006,0.0,0.0,0.0,0.0006,-1.2497732666015624,1.6256629272460936,8.358157995605469,0.01,0.0,0.0,0.0,0.01,0.0,0.0,0.0,0.01
1573857274.0932834,58728,676,904318030,/os1_imu,0.0,0.0,0.0,0.0,-1.0,-1.0,-1.0,-1.0,-1.0,-1.0,-1.0,-1.0,-1.0,0.0027963191445832,0.0,0.0005326322180158476,0.0006,0.0,0.0,0.0,0.0006,0.0,0.0,0.0,0.0006,-1.5227122558593749,1.5897499023437498,8.525752111816406,0.01,0.0,0.0,0.0,0.01,0.0,0.0,0.0,0.01
1573857274.1037169,58729,676,914318250,/os1_imu,0.0,0.0,0.0,0.0,-1.0,-1.0,-1.0,-1.0,-1.0,-1.0,-1.0,-1.0,-1.0,-0.003062635253591124,-0.006391586616190171,0.0002663161090079238,0.0006,0.0,0.0,0.0,0.0006,0.0,0.0,0.0,0.0006,-1.5729904907226562,1.6041151123046875,8.315062365722655,0.01,0.0,0.0,0.0,0.01,0.0,0.0,0.0,0.01
1573857274.113517,58730,676,924318310,/os1_imu,0.0,0.0,0.0,0.0,-1.0,-1.0,-1.0,-1.0,-1.0,-1.0,-1.0,-1.0,-1.0,-0.007989483270237714,-0.010652644360316953,-0.008921589651765448,0.0006,0.0,0.0,0.0,0.0006,0.0,0.0,0.0,0.0006,-1.5275006591796874,1.6807295654296874,8.518569506835936,0.01,0.0,0.0,0.0,0.01,0.0,0.0,0.0,0.01
1573857274.1239464,58731,676,934318190,/os1_imu,0.0,0.0,0.0,0.0,-1.0,-1.0,-1.0,-1.0,-1.0,-1.0,-1.0,-1.0,-1.0,-0.01344896350490015,-0.007190534943213943,-0.0038615835806148956,0.0006,0.0,0.0,0.0,0.0006,0.0,0.0,0.0,0.0006,-1.350329736328125,1.6615759521484375,8.432378247070313,0.01,0.0,0.0,0.0,0.01,0.0,0.0,0.0,0.01
1573857274.1334028,58732,676,944318010,/os1_imu,0.0,0.0,0.0,0.0,-1.0,-1.0,-1.0,-1.0,-1.0,-1.0,-1.0,-1.0,-1.0,-0.015313176267955617,-0.0006657902725198095,-0.0023968449810713144,0.0006,0.0,0.0,0.0,0.0006,0.0,0.0,0.0,0.0006,-1.2904746948242187,1.6448165405273436,8.327033374023436,0.01,0.0,0.0,0.0,0.01,0.0,0.0,0.0,0.01
1573857274.1434438,58733,676,954318340,/os1_imu,0.0,0.0,0.0,0.0,-1.0,-1.0,-1.0,-1.0,-1.0,-1.0,-1.0,-1.0,-1.0,-0.017576863194522972,0.0011984224905356572,0.0,0.0006,0.0,0.0,0.0,0.0006,0.0,0.0,0.0,0.0006,-1.2378022583007813,1.5945383056640625,8.508992700195313,0.01,0.0,0.0,0.0,0.01,0.0,0.0,0.0,0.01
1573857274.1537519,58734,676,964318410,/os1_imu,0.0,0.0,0.0,0.0,-1.0,-1.0,-1.0,-1.0,-1.0,-1.0,-1.0,-1.0,-1.0,-0.017710021249026934,-0.005858954398174323,0.0003994741635118857,0.0006,0.0,0.0,0.0,0.0006,0.0,0.0,0.0,0.0006,-1.4700398193359374,1.5394716674804687,8.482656481933594,0.01,0.0,0.0,0.0,0.01,0.0,0.0,0.0,0.01
1573857274.1824605,58735,676,974318410,/os1_imu,0.0,0.0,0.0,0.0,-1.0,-1.0,-1.0,-1.0,-1.0,-1.0,-1.0,-1.0,-1.0,-0.019973708175594285,-0.013049489341388266,-0.0022636869265673524,0.0006,0.0,0.0,0.0,0.0006,0.0,0.0,0.0,0.0006,-1.4915876342773438,1.419761584472656,8.578424548339843,0.01,0.0,0.0,0.0,0.01,0.0,0.0,0.0,0.01
1573857274.1832237,58736,676,984318060,/os1_imu,0.0,0.0,0.0,0.0,-1.0,-1.0,-1.0,-1.0,-1.0,-1.0,-1.0,-1.0,-1.0,-0.022237395102161637,-0.004660531907638666,-0.0031957933080950856,0.0006,0.0,0.0,0.0,0.0006,0.0,0.0,0.0,0.0006,-1.2713210815429687,1.4245499877929686,8.750807067871094,0.01,0.0,0.0,0.0,0.01,0.0,0.0,0.0,0.01
1573857274.183639,58737,676,994318020,/os1_imu,0.0,0.0,0.0,0.0,-1.0,-1.0,-1.0,-1.0,-1.0,-1.0,-1.0,-1.0,-1.0,-0.02356897564720126,0.0010652644360316951,-0.001331580545039619,0.0006,0.0,0.0,0.0,0.0006,0.0,0.0,0.0,0.0006,-1.0271125122070313,1.5514426757812498,8.597578161621094,0.01,0.0,0.0,0.0,0.01,0.0,0.0,0.0,0.01
1573857274.1937056,58738,677,4318360,/os1_imu,0.0,0.0,0.0,0.0,-1.0,-1.0,-1.0,-1.0,-1.0,-1.0,-1.0,-1.0,-1.0,-0.021038972611625982,0.008122641324741676,0.004394215798630743,0.0006,0.0,0.0,0.0,0.0006,0.0,0.0,0.0,0.0006,-1.149216796875,1.4891934326171874,8.698134631347656,0.01,0.0,0.0,0.0,0.01,0.0,0.0,0.0,0.01
1573857274.2035513,58739,677,14318000,/os1_imu,0.0,0.0,0.0,0.0,-1.0,-1.0,-1.0,-1.0,-1.0,-1.0,-1.0,-1.0,-1.0,-0.019307917903074477,0.006524744670694133,0.0038615835806148956,0.0006,0.0,0.0,0.0,0.0006,0.0,0.0,0.0,0.0006,-1.3958195678710936,1.35990654296875,8.633491186523438,0.01,0.0,0.0,0.0,0.01,0.0,0.0,0.0,0.01
1573857274.2135334,58740,677,24318060,/os1_imu,0.0,0.0,0.0,0.0,-1.0,-1.0,-1.0,-1.0,-1.0,-1.0,-1.0,-1.0,-1.0,-0.02356897564720126,0.012916331286884304,-0.0049268480166465905,0.0006,0.0,0.0,0.0,0.0006,0.0,0.0,0.0,0.0006,-1.4341267944335936,1.13006318359375,8.863334545898438,0.01,0.0,0.0,0.0,0.01,0.0,0.0,0.0,0.01
1573857274.2234492,58741,677,34318400,/os1_imu,0.0,0.0,0.0,0.0,-1.0,-1.0,-1.0,-1.0,-1.0,-1.0,-1.0,-1.0,-1.0,-0.02436792397422503,0.015446334322459582,0.0014647385995435807,0.0006,0.0,0.0,0.0,0.0006,0.0,0.0,0.0,0.0006,-1.3670891479492187,1.2042834350585936,8.748412866210938,0.01,0.0,0.0,0.0,0.01,0.0,0.0,0.0,0.01
1573857274.2332327,58742,677,44318270,/os1_imu,0.0,0.0,0.0,0.0,-1.0,-1.0,-1.0,-1.0,-1.0,-1.0,-1.0,-1.0,-1.0,-0.02077265650261806,0.03555320055255783,0.004394215798630743,0.0006,0.0,0.0,0.0,0.0006,0.0,0.0,0.0,0.0006,-1.2904746948242187,1.2401964599609374,8.825027319335938,0.01,0.0,0.0,0.0,0.01,0.0,0.0,0.0,0.01
1573857274.2432272,58743,677,54318040,/os1_imu,0.0,0.0,0.0,0.0,-1.0,-1.0,-1.0,-1.0,-1.0,-1.0,-1.0,-1.0,-1.0,-0.013315805450396189,0.02503371424674484,0.0021305288720633903,0.0006,0.0,0.0,0.0,0.0006,0.0,0.0,0.0,0.0006,-1.350329736328125,0.9959878906249999,8.726865051269531,0.01,0.0,0.0,0.0,0.01,0.0,0.0,0.0,0.01
1573857274.2531958,58744,677,64318060,/os1_imu,0.0,0.0,0.0,0.0,-1.0,-1.0,-1.0,-1.0,-1.0,-1.0,-1.0,-1.0,-1.0,-0.016644756812995237,0.020106866230098247,-0.0015978966540475428,0.0006,0.0,0.0,0.0,0.0006,0.0,0.0,0.0,0.0006,-1.6232687255859375,1.0031704956054688,8.726865051269531,0.01,0.0,0.0,0.0,0.01,0.0,0.0,0.0,0.01
1573857274.2698312,58745,677,74318030,/os1_imu,0.0,0.0,0.0,0.0,-1.0,-1.0,-1.0,-1.0,-1.0,-1.0,-1.0,-1.0,-1.0,-0.015579492376963544,0.031158984753927088,-0.0027963191445832,0.0006,0.0,0.0,0.0,0.0006,0.0,0.0,0.0,0.0006,-1.7286135986328124,0.9648632690429687,9.064447485351561,0.01,0.0,0.0,0.0,0.01,0.0,0.0,0.0,0.01
1573857274.2735732,58746,677,84318000,/os1_imu,0.0,0.0,0.0,0.0,-1.0,-1.0,-1.0,-1.0,-1.0,-1.0,-1.0,-1.0,-1.0,-0.01478054404993977,0.042077945223251964,0.0038615835806148956,0.0006,0.0,0.0,0.0,0.0006,0.0,0.0,0.0,0.0006,-1.8219874633789062,0.7852981445312499,8.99501563720703,0.01,0.0,0.0,0.0,0.01,0.0,0.0,0.0,0.01
1573857274.283317,58747,677,94318240,/os1_imu,0.0,0.0,0.0,0.0,-1.0,-1.0,-1.0,-1.0,-1.0,-1.0,-1.0,-1.0,-1.0,-0.012783173232380343,0.04926848016646591,0.0021305288720633903,0.0006,0.0,0.0,0.0,0.0006,0.0,0.0,0.0,0.0006,-1.7573440185546874,1.0366893188476562,8.86094034423828,0.01,0.0,0.0,0.0,0.01,0.0,0.0,0.0,0.01
1573857274.2931747,58748,677,104317980,/os1_imu,0.0,0.0,0.0,0.0,-1.0,-1.0,-1.0,-1.0,-1.0,-1.0,-1.0,-1.0,-1.0,-0.00625842856168621,0.03901530996966084,0.0038615835806148956,0.0006,0.0,0.0,0.0,0.0006,0.0,0.0,0.0,0.0006,-2.094926452636719,0.9528922607421875,9.05965908203125,0.01,0.0,0.0,0.0,0.01,0.0,0.0,0.0,0.01
1573857274.303334,58749,677,114318050,/os1_imu,0.0,0.0,0.0,0.0,-1.0,-1.0,-1.0,-1.0,-1.0,-1.0,-1.0,-1.0,-1.0,-0.001731054708551505,0.03036003642690331,0.005725796343670361,0.0006,0.0,0.0,0.0,0.0006,0.0,0.0,0.0,0.0006,-2.1739351074218747,0.7589619262695312,8.997409838867187,0.01,0.0,0.0,0.0,0.01,0.0,0.0,0.0,0.01
1573857274.3137197,58750,677,124318400,/os1_imu,0.0,0.0,0.0,0.0,-1.0,-1.0,-1.0,-1.0,-1.0,-1.0,-1.0,-1.0,-1.0,-0.0038615835806148956,0.03621899082507764,-0.001331580545039619,0.0006,0.0,0.0,0.0,0.0006,0.0,0.0,0.0,0.0006,-2.01112939453125,0.9050082275390624,9.057264880371093,0.01,0.0,0.0,0.0,0.01,0.0,0.0,0.0,0.01
1573857274.323437,58751,677,134318330,/os1_imu,0.0,0.0,0.0,0.0,-1.0,-1.0,-1.0,-1.0,-1.0,-1.0,-1.0,-1.0,-1.0,-0.005193164125654515,0.047404267403410444,-0.0001331580545039619,0.0006,0.0,0.0,0.0,0.0006,0.0,0.0,0.0,0.0006,-2.1595698974609374,0.948103857421875,9.030928662109375,0.01,0.0,0.0,0.0,0.01,0.0,0.0,0.0,0.01
1573857274.333396,58752,677,144318270,/os1_imu,0.0,0.0,0.0,0.0,-1.0,-1.0,-1.0,-1.0,-1.0,-1.0,-1.0,-1.0,-1.0,-0.003994741635118857,0.06218481145335021,0.00692421883420602,0.0006,0.0,0.0,0.0,0.0006,0.0,0.0,0.0,0.0006,-2.43250888671875,0.699106884765625,8.882488159179687,0.01,0.0,0.0,0.0,0.01,0.0,0.0,0.0,0.01
1573857274.343516,58753,677,154317990,/os1_imu,0.0,0.0,0.0,0.0,-1.0,-1.0,-1.0,-1.0,-1.0,-1.0,-1.0,-1.0,-1.0,0.0003994741635118857,0.05752427954571154,0.006125270507182248,0.0006,0.0,0.0,0.0,0.0006,0.0,0.0,0.0,0.0006,-2.418143676757812,0.8164227661132812,8.741230261230468,0.01,0.0,0.0,0.0,0.01,0.0,0.0,0.0,0.01
1573857274.3535187,58754,677,164318080,/os1_imu,0.0,0.0,0.0,0.0,-1.0,-1.0,-1.0,-1.0,-1.0,-1.0,-1.0,-1.0,-1.0,0.005193164125654515,0.0475374254579144,0.00625842856168621,0.0006,0.0,0.0,0.0,0.0006,0.0,0.0,0.0,0.0006,-2.6431986328124997,0.6943184814453125,8.789114294433594,0.01,0.0,0.0,0.0,0.01,0.0,0.0,0.0,0.01
1573857274.3840406,58755,677,174318400,/os1_imu,0.0,0.0,0.0,0.0,-1.0,-1.0,-1.0,-1.0,-1.0,-1.0,-1.0,-1.0,-1.0,0.00692421883420602,0.0391484680241648,0.00346210941710301,0.0006,0.0,0.0,0.0,0.0006,0.0,0.0,0.0,0.0006,-2.748543505859375,0.49320554199218747,8.635885388183594,0.01,0.0,0.0,0.0,0.01,0.0,0.0,0.0,0.01
1573857274.3840935,58756,677,184318310,/os1_imu,0.0,0.0,0.0,0.0,-1.0,-1.0,-1.0,-1.0,-1.0,-1.0,-1.0,-1.0,-1.0,0.010652644360316953,0.044341632149819316,0.005193164125654515,0.0006,0.0,0.0,0.0,0.0006,0.0,0.0,0.0,0.0006,-2.664746447753906,0.6560112548828124,8.674192614746094,0.01,0.0,0.0,0.0,0.01,0.0,0.0,0.0,0.01
1573857274.3844788,58757,677,194318400,/os1_imu,0.0,0.0,0.0,0.0,-1.0,-1.0,-1.0,-1.0,-1.0,-1.0,-1.0,-1.0,-1.0,0.019707392066586362,0.04460794825882724,0.008655273542757524,0.0006,0.0,0.0,0.0,0.0006,0.0,0.0,0.0,0.0006,-2.6791116577148437,0.718260498046875,8.702923034667968,0.01,0.0,0.0,0.0,0.01,0.0,0.0,0.0,0.01
1573857274.3935804,58758,677,204317990,/os1_imu,0.0,0.0,0.0,0.0,-1.0,-1.0,-1.0,-1.0,-1.0,-1.0,-1.0,-1.0,-1.0,0.021438446775137867,0.04314320965928366,0.01344896350490015,0.0006,0.0,0.0,0.0,0.0006,0.0,0.0,0.0,0.0006,-2.8514941772460936,0.689530078125,8.580818749999999,0.01,0.0,0.0,0.0,0.01,0.0,0.0,0.0,0.01
1573857274.4036934,58759,677,214318120,/os1_imu,0.0,0.0,0.0,0.0,-1.0,-1.0,-1.0,-1.0,-1.0,-1.0,-1.0,-1.0,-1.0,0.025433188410256723,0.04048004856920442,0.0027963191445832,0.0006,0.0,0.0,0.0,0.0006,0.0,0.0,0.0,0.0006,-2.990357873535156,0.5817910034179687,8.434772448730468,0.01,0.0,0.0,0.0,0.01,0.0,0.0,0.0,0.01
1573857274.4136045,58760,677,224318000,/os1_imu,0.0,0.0,0.0,0.0,-1.0,-1.0,-1.0,-1.0,-1.0,-1.0,-1.0,-1.0,-1.0,0.025433188410256723,0.032357407244462746,0.0006657902725198095,0.0006,0.0,0.0,0.0,0.0006,0.0,0.0,0.0,0.0006,-2.916137622070312,0.6344634399414062,8.504204296874999,0.01,0.0,0.0,0.0,0.01,0.0,0.0,0.0,0.01
1573857274.4234855,58761,677,234318330,/os1_imu,0.0,0.0,0.0,0.0,-1.0,-1.0,-1.0,-1.0,-1.0,-1.0,-1.0,-1.0,-1.0,0.026631610900792378,0.02956108809987954,0.008921589651765448,0.0006,0.0,0.0,0.0,0.0006,0.0,0.0,0.0,0.0006,-2.923320227050781,0.5458779785156249,8.473079675292968,0.01,0.0,0.0,0.0,0.01,0.0,0.0,0.0,0.01
1573857274.433306,58762,677,244318020,/os1_imu,0.0,0.0,0.0,0.0,-1.0,-1.0,-1.0,-1.0,-1.0,-1.0,-1.0,-1.0,-1.0,0.030626352535911235,0.04127899689622819,0.012783173232380343,0.0006,0.0,0.0,0.0,0.0006,0.0,0.0,0.0,0.0006,-2.990357873535156,0.8786720092773437,8.465897070312499,0.01,0.0,0.0,0.0,0.01,0.0,0.0,0.0,0.01
1573857274.4433348,58763,677,254318000,/os1_imu,0.0,0.0,0.0,0.0,-1.0,-1.0,-1.0,-1.0,-1.0,-1.0,-1.0,-1.0,-1.0,0.033156355571486516,0.03621899082507764,0.009853696033293181,0.0006,0.0,0.0,0.0,0.0006,0.0,0.0,0.0,0.0006,-2.9759926635742184,0.9624690673828125,8.267178332519531,0.01,0.0,0.0,0.0,0.01,0.0,0.0,0.0,0.01
1573857274.453591,58764,677,264318250,/os1_imu,0.0,0.0,0.0,0.0,-1.0,-1.0,-1.0,-1.0,-1.0,-1.0,-1.0,-1.0,-1.0,0.037550571370117254,0.026365294791784455,0.010519486305812991,0.0006,0.0,0.0,0.0,0.0006,0.0,0.0,0.0,0.0006,-3.308786694335937,0.9026140258789062,8.257601525878906,0.01,0.0,0.0,0.0,0.01,0.0,0.0,0.0,0.01
1573857274.4635086,58765,677,274318400,/os1_imu,0.0,0.0,0.0,0.0,-1.0,-1.0,-1.0,-1.0,-1.0,-1.0,-1.0,-1.0,-1.0,0.03142530086293501,0.016245282649483352,0.008655273542757524,0.0006,0.0,0.0,0.0,0.0006,0.0,0.0,0.0,0.0006,-3.3590649291992185,1.0558429321289062,8.137891442871092,0.01,0.0,0.0,0.0,0.01,0.0,0.0,0.0,0.01
1573857274.473339,58766,677,284318020,/os1_imu,0.0,0.0,0.0,0.0,-1.0,-1.0,-1.0,-1.0,-1.0,-1.0,-1.0,-1.0,-1.0,0.03528688444354991,0.009853696033293181,0.009853696033293181,0.0006,0.0,0.0,0.0,0.0006,0.0,0.0,0.0,0.0006,-3.1866824096679687,1.0486603271484374,8.252813122558594,0.01,0.0,0.0,0.0,0.01,0.0,0.0,0.0,0.01
1573857274.4834027,58767,677,294318240,/os1_imu,0.0,0.0,0.0,0.0,-1.0,-1.0,-1.0,-1.0,-1.0,-1.0,-1.0,-1.0,-1.0,0.0335558297349984,0.011984224905356573,0.008788431597261486,0.0006,0.0,0.0,0.0,0.0006,0.0,0.0,0.0,0.0006,-3.0741549316406247,1.0702081420898437,8.066065393066406,0.01,0.0,0.0,0.0,0.01,0.0,0.0,0.0,0.01
1573857274.4933753,58768,677,304318030,/os1_imu,0.0,0.0,0.0,0.0,-1.0,-1.0,-1.0,-1.0,-1.0,-1.0,-1.0,-1.0,-1.0,0.03901530996966084,0.005725796343670361,0.008921589651765448,0.0006,0.0,0.0,0.0,0.0006,0.0,0.0,0.0,0.0006,-3.1579519897460937,1.2761094848632812,8.003816149902343,0.01,0.0,0.0,0.0,0.01,0.0,0.0,0.0,0.01
1573857274.504517,58769,677,314318010,/os1_imu,0.0,0.0,0.0,0.0,-1.0,-1.0,-1.0,-1.0,-1.0,-1.0,-1.0,-1.0,-1.0,0.03994741635118857,-0.0011984224905356572,0.010918960469324876,0.0006,0.0,0.0,0.0,0.0006,0.0,0.0,0.0,0.0006,-3.23696064453125,1.2761094848632812,8.12113203125,0.01,0.0,0.0,0.0,0.01,0.0,0.0,0.0,0.01
1573857274.5138724,58770,677,324318020,/os1_imu,0.0,0.0,0.0,0.0,-1.0,-1.0,-1.0,-1.0,-1.0,-1.0,-1.0,-1.0,-1.0,0.03874899386065292,0.0010652644360316951,0.0021305288720633903,0.0006,0.0,0.0,0.0,0.0006,0.0,0.0,0.0,0.0006,-3.1292215698242187,1.2114660400390624,8.128314636230469,0.01,0.0,0.0,0.0,0.01,0.0,0.0,0.0,0.01
1573857274.5238178,58771,677,334318400,/os1_imu,0.0,0.0,0.0,0.0,-1.0,-1.0,-1.0,-1.0,-1.0,-1.0,-1.0,-1.0,-1.0,0.03422162000751821,-0.0038615835806148956,0.0049268480166465905,0.0006,0.0,0.0,0.0,0.0006,0.0,0.0,0.0,0.0006,-3.0933085449218747,1.3263877197265623,8.044517578125,0.01,0.0,0.0,0.0,0.01,0.0,0.0,0.0,0.01
1573857274.5337107,58772,677,344318330,/os1_imu,0.0,0.0,0.0,0.0,-1.0,-1.0,-1.0,-1.0,-1.0,-1.0,-1.0,-1.0,-1.0,0.03715109720660537,0.003994741635118857,0.007989483270237714,0.0006,0.0,0.0,0.0,0.0006,0.0,0.0,0.0,0.0006,-2.8706477905273435,1.6041151123046875,8.085219006347655,0.01,0.0,0.0,0.0,0.01,0.0,0.0,0.0,0.01
1573857274.5435438,58773,677,354318030,/os1_imu,0.0,0.0,0.0,0.0,-1.0,-1.0,-1.0,-1.0,-1.0,-1.0,-1.0,-1.0,-1.0,0.03648530693408556,-0.003728425526110933,0.007856325215733753,0.0006,0.0,0.0,0.0,0.0006,0.0,0.0,0.0,0.0006,-2.9185318237304685,1.3670891479492187,8.015787158203125,0.01,0.0,0.0,0.0,0.01,0.0,0.0,0.0,0.01
1573857274.5544748,58774,677,364318030,/os1_imu,0.0,0.0,0.0,0.0,-1.0,-1.0,-1.0,-1.0,-1.0,-1.0,-1.0,-1.0,-1.0,0.03448793611652613,-0.009587379924285258,0.0019973708175594286,0.0006,0.0,0.0,0.0,0.0006,0.0,0.0,0.0,0.0006,-3.0214824951171875,1.5394716674804687,8.051700183105469,0.01,0.0,0.0,0.0,0.01,0.0,0.0,0.0,0.01
1573857274.584414,58775,677,374318100,/os1_imu,0.0,0.0,0.0,0.0,-1.0,-1.0,-1.0,-1.0,-1.0,-1.0,-1.0,-1.0,-1.0,0.03475425222553406,-0.022770027320177483,-0.0002663161090079238,0.0006,0.0,0.0,0.0,0.0006,0.0,0.0,0.0,0.0006,-3.028665100097656,1.6328455322265625,7.975085729980468,0.01,0.0,0.0,0.0,0.01,0.0,0.0,0.0,0.01
1573857274.5850842,58776,677,384318400,/os1_imu,0.0,0.0,0.0,0.0,-1.0,-1.0,-1.0,-1.0,-1.0,-1.0,-1.0,-1.0,-1.0,0.031691616971942935,-0.02077265650261806,0.0,0.0006,0.0,0.0,0.0,0.0006,0.0,0.0,0.0,0.0006,-2.887407202148437,1.4437036010742186,8.087613208007811,0.01,0.0,0.0,0.0,0.01,0.0,0.0,0.0,0.01
1573857274.5851076,58777,677,394318290,/os1_imu,0.0,0.0,0.0,0.0,-1.0,-1.0,-1.0,-1.0,-1.0,-1.0,-1.0,-1.0,-1.0,0.029161613936367656,-0.017044230976507122,0.0021305288720633903,0.0006,0.0,0.0,0.0,0.0006,0.0,0.0,0.0,0.0006,-2.645592834472656,1.8195932617187498,8.116343627929687,0.01,0.0,0.0,0.0,0.01,0.0,0.0,0.0,0.01
1573857274.593457,58778,677,404318400,/os1_imu,0.0,0.0,0.0,0.0,-1.0,-1.0,-1.0,-1.0,-1.0,-1.0,-1.0,-1.0,-1.0,0.035020568334541986,-0.011584750741844684,0.005193164125654515,0.0006,0.0,0.0,0.0,0.0006,0.0,0.0,0.0,0.0006,-2.6886884643554687,1.7357962036132812,8.027758166503906,0.01,0.0,0.0,0.0,0.01,0.0,0.0,0.0,0.01
1573857274.6037621,58779,677,414318040,/os1_imu,0.0,0.0,0.0,0.0,-1.0,-1.0,-1.0,-1.0,-1.0,-1.0,-1.0,-1.0,-1.0,0.03528688444354991,-0.014247911831923924,-0.0009321063815277333,0.0006,0.0,0.0,0.0,0.0006,0.0,0.0,0.0,0.0006,-2.849099975585937,1.7573440185546874,8.233659509277343,0.01,0.0,0.0,0.0,0.01,0.0,0.0,0.0,0.01
1573857274.6135955,58780,677,424318270,/os1_imu,0.0,0.0,0.0,0.0,-1.0,-1.0,-1.0,-1.0,-1.0,-1.0,-1.0,-1.0,-1.0,0.026232136737280493,-0.02356897564720126,-0.003994741635118857,0.0006,0.0,0.0,0.0,0.0006,0.0,0.0,0.0,0.0006,-2.7461493041992187,1.7334020019531249,8.305485559082031,0.01,0.0,0.0,0.0,0.01,0.0,0.0,0.0,0.01
1573857274.6234572,58781,677,434318010,/os1_imu,0.0,0.0,0.0,0.0,-1.0,-1.0,-1.0,-1.0,-1.0,-1.0,-1.0,-1.0,-1.0,0.025566346464760685,-0.03195793308095086,-0.0027963191445832,0.0006,0.0,0.0,0.0,0.0006,0.0,0.0,0.0,0.0006,-2.5378537597656248,1.93451494140625,8.350975390624999,0.01,0.0,0.0,0.0,0.01,0.0,0.0,0.0,0.01
1573857274.633335,58782,677,444318020,/os1_imu,0.0,0.0,0.0,0.0,-1.0,-1.0,-1.0,-1.0,-1.0,-1.0,-1.0,-1.0,-1.0,0.02316950148368937,-0.011318434632836761,0.005459480234662438,0.0006,0.0,0.0,0.0,0.0006,0.0,0.0,0.0,0.0006,-2.2577321655273437,1.618480322265625,8.303091357421874,0.01,0.0,0.0,0.0,0.01,0.0,0.0,0.0,0.01
1573857274.6436558,58783,677,454318160,/os1_imu,0.0,0.0,0.0,0.0,-1.0,-1.0,-1.0,-1.0,-1.0,-1.0,-1.0,-1.0,-1.0,0.02503371424674484,-0.0035952674716069714,0.0019973708175594286,0.0006,0.0,0.0,0.0,0.0006,0.0,0.0,0.0,0.0006,-2.4756045166015626,1.8267758666992187,8.106766821289062,0.01,0.0,0.0,0.0,0.01,0.0,0.0,0.0,0.01
1573857274.6536887,58784,677,464318010,/os1_imu,0.0,0.0,0.0,0.0,-1.0,-1.0,-1.0,-1.0,-1.0,-1.0,-1.0,-1.0,-1.0,0.026365294791784455,-0.005992112452678286,0.0010652644360316951,0.0006,0.0,0.0,0.0,0.0006,0.0,0.0,0.0,0.0006,-2.8131869506835936,1.956062756347656,8.518569506835936,0.01,0.0,0.0,0.0,0.01,0.0,0.0,0.0,0.01
1573857274.6702292,58785,677,474318030,/os1_imu,0.0,0.0,0.0,0.0,-1.0,-1.0,-1.0,-1.0,-1.0,-1.0,-1.0,-1.0,-1.0,0.0195742340120824,-0.011717908796348646,-0.00346210941710301,0.0006,0.0,0.0,0.0,0.0006,0.0,0.0,0.0,0.0006,-2.8371289672851563,1.7956512451171873,8.360552197265624,0.01,0.0,0.0,0.0,0.01,0.0,0.0,0.0,0.01
1573857274.6735868,58786,677,484318400,/os1_imu,0.0,0.0,0.0,0.0,-1.0,-1.0,-1.0,-1.0,-1.0,-1.0,-1.0,-1.0,-1.0,0.015313176267955617,-0.01478054404993977,0.0005326322180158476,0.0006,0.0,0.0,0.0,0.0006,0.0,0.0,0.0,0.0006,-2.4564509033203126,1.7908628417968748,8.322244970703125,0.01,0.0,0.0,0.0,0.01,0.0,0.0,0.0,0.01
1573857274.6833918,58787,677,494318260,/os1_imu,0.0,0.0,0.0,0.0,-1.0,-1.0,-1.0,-1.0,-1.0,-1.0,-1.0,-1.0,-1.0,0.015046860158947694,-0.01478054404993977,0.003062635253591124,0.0006,0.0,0.0,0.0,0.0006,0.0,0.0,0.0,0.0006,-2.3582886352539063,1.9752163696289062,8.51617530517578,0.01,0.0,0.0,0.0,0.01,0.0,0.0,0.0,0.01
1573857274.6934307,58788,677,504318050,/os1_imu,0.0,0.0,0.0,0.0,-1.0,-1.0,-1.0,-1.0,-1.0,-1.0,-1.0,-1.0,-1.0,0.02037318233910617,-0.00972053797878922,0.004527373853134705,0.0006,0.0,0.0,0.0,0.0006,0.0,0.0,0.0,0.0006,-2.461239306640625,1.7908628417968748,8.2360537109375,0.01,0.0,0.0,0.0,0.01,0.0,0.0,0.0,0.01
1573857274.7038448,58789,677,514318020,/os1_imu,0.0,0.0,0.0,0.0,-1.0,-1.0,-1.0,-1.0,-1.0,-1.0,-1.0,-1.0,-1.0,0.012117382959860534,-0.0010652644360316951,-0.0027963191445832,0.0006,0.0,0.0,0.0,0.0006,0.0,0.0,0.0,0.0006,-2.6791116577148437,1.6615759521484375,8.489839086914062,0.01,0.0,0.0,0.0,0.01,0.0,0.0,0.0,0.01
1573857274.71354,58790,677,524318000,/os1_imu,0.0,0.0,0.0,0.0,-1.0,-1.0,-1.0,-1.0,-1.0,-1.0,-1.0,-1.0,-1.0,0.011052118523828838,-0.006125270507182248,-0.0035952674716069714,0.0006,0.0,0.0,0.0,0.0006,0.0,0.0,0.0,0.0006,-2.6479870361328124,1.7836802368164062,8.470685473632813,0.01,0.0,0.0,0.0,0.01,0.0,0.0,0.0,0.01
1573857274.7235498,58791,677,534318400,/os1_imu,0.0,0.0,0.0,0.0,-1.0,-1.0,-1.0,-1.0,-1.0,-1.0,-1.0,-1.0,-1.0,0.007856325215733753,-0.010918960469324876,0.0006657902725198095,0.0006,0.0,0.0,0.0,0.0006,0.0,0.0,0.0,0.0006,-2.6527754394531247,1.6328455322265625,8.406042028808594,0.01,0.0,0.0,0.0,0.01,0.0,0.0,0.0,0.01
1573857274.7336218,58792,677,544318360,/os1_imu,0.0,0.0,0.0,0.0,-1.0,-1.0,-1.0,-1.0,-1.0,-1.0,-1.0,-1.0,-1.0,0.005193164125654515,-0.004793689962142629,0.005459480234662438,0.0006,0.0,0.0,0.0,0.0006,0.0,0.0,0.0,0.0006,-2.375048046875,1.6065093139648436,8.518569506835936,0.01,0.0,0.0,0.0,0.01,0.0,0.0,0.0,0.01
1573857274.743809,58793,677,554318400,/os1_imu,0.0,0.0,0.0,0.0,-1.0,-1.0,-1.0,-1.0,-1.0,-1.0,-1.0,-1.0,-1.0,0.004793689962142629,0.007057376888709981,0.006125270507182248,0.0006,0.0,0.0,0.0,0.0006,0.0,0.0,0.0,0.0006,-2.4851813232421875,1.8004396484374998,8.441955053710936,0.01,0.0,0.0,0.0,0.01,0.0,0.0,0.0,0.01
1573857274.754115,58794,677,564318400,/os1_imu,0.0,0.0,0.0,0.0,-1.0,-1.0,-1.0,-1.0,-1.0,-1.0,-1.0,-1.0,-1.0,0.0018642127630554665,0.004394215798630743,0.0083889574337496,0.0006,0.0,0.0,0.0,0.0006,0.0,0.0,0.0,0.0006,-2.77727392578125,1.6352397338867186,8.623914379882812,0.01,0.0,0.0,0.0,0.01,0.0,0.0,0.0,0.01
1573857274.7813818,58795,677,574318400,/os1_imu,0.0,0.0,0.0,0.0,-1.0,-1.0,-1.0,-1.0,-1.0,-1.0,-1.0,-1.0,-1.0,-0.004394215798630743,0.0021305288720633903,0.005459480234662438,0.0006,0.0,0.0,0.0,0.0006,0.0,0.0,0.0,0.0006,-2.789244934082031,1.4724340209960938,8.535328918457031,0.01,0.0,0.0,0.0,0.01,0.0,0.0,0.0,0.01
1573857274.7815719,58796,677,584318400,/os1_imu,0.0,0.0,0.0,0.0,-1.0,-1.0,-1.0,-1.0,-1.0,-1.0,-1.0,-1.0,-1.0,-0.004793689962142629,-0.002530003035575276,0.007856325215733753,0.0006,0.0,0.0,0.0,0.0006,0.0,0.0,0.0,0.0006,-2.8036101440429686,1.5921441040039062,8.492233288574218,0.01,0.0,0.0,0.0,0.01,0.0,0.0,0.0,0.01
1573857274.7840095,58797,677,594318310,/os1_imu,0.0,0.0,0.0,0.0,-1.0,-1.0,-1.0,-1.0,-1.0,-1.0,-1.0,-1.0,-1.0,-0.00692421883420602,-0.0022636869265673524,0.008788431597261486,0.0006,0.0,0.0,0.0,0.0006,0.0,0.0,0.0,0.0006,-2.50912333984375,1.5586252807617187,8.506598498535157,0.01,0.0,0.0,0.0,0.01,0.0,0.0,0.0,0.01
1573857274.793894,58798,677,604318030,/os1_imu,0.0,0.0,0.0,0.0,-1.0,-1.0,-1.0,-1.0,-1.0,-1.0,-1.0,-1.0,-1.0,-0.0042610577441267805,-0.0018642127630554665,0.011851066850852611,0.0006,0.0,0.0,0.0,0.0006,0.0,0.0,0.0,0.0006,-2.5354595581054684,1.2952630981445312,8.329427575683594,0.01,0.0,0.0,0.0,0.01,0.0,0.0,0.0,0.01
1573857274.8036408,58799,677,614317980,/os1_imu,0.0,0.0,0.0,0.0,-1.0,-1.0,-1.0,-1.0,-1.0,-1.0,-1.0,-1.0,-1.0,-0.005060006071150552,-0.003062635253591124,0.012916331286884304,0.0006,0.0,0.0,0.0,0.0006,0.0,0.0,0.0,0.0006,-2.825157958984375,1.4413093994140624,8.52335791015625,0.01,0.0,0.0,0.0,0.01,0.0,0.0,0.0,0.01
1573857274.813366,58800,677,624318400,/os1_imu,0.0,0.0,0.0,0.0,-1.0,-1.0,-1.0,-1.0,-1.0,-1.0,-1.0,-1.0,-1.0,-0.010120012142301104,-0.006391586616190171,0.0035952674716069714,0.0006,0.0,0.0,0.0,0.0006,0.0,0.0,0.0,0.0006,-2.8107927490234372,1.3527239379882812,8.475473876953124,0.01,0.0,0.0,0.0,0.01,0.0,0.0,0.0,0.01
1573857274.8234854,58801,677,634318100,/os1_imu,0.0,0.0,0.0,0.0,-1.0,-1.0,-1.0,-1.0,-1.0,-1.0,-1.0,-1.0,-1.0,-0.012250541014364496,-0.0035952674716069714,0.007057376888709981,0.0006,0.0,0.0,0.0,0.0006,0.0,0.0,0.0,0.0006,-2.6312276245117188,1.0582371337890624,8.365340600585936,0.01,0.0,0.0,0.0,0.01,0.0,0.0,0.0,0.01
1573857274.8335862,58802,677,644318020,/os1_imu,0.0,0.0,0.0,0.0,-1.0,-1.0,-1.0,-1.0,-1.0,-1.0,-1.0,-1.0,-1.0,-0.009454221869781294,0.005060006071150552,0.010918960469324876,0.0006,0.0,0.0,0.0,0.0006,0.0,0.0,0.0,0.0006,-2.636016027832031,1.388636962890625,8.51617530517578,0.01,0.0,0.0,0.0,0.01,0.0,0.0,0.0,0.01
1573857274.8434722,58803,677,654318030,/os1_imu,0.0,0.0,0.0,0.0,-1.0,-1.0,-1.0,-1.0,-1.0,-1.0,-1.0,-1.0,-1.0,-0.00692421883420602,0.0015978966540475428,0.010253170196805066,0.0006,0.0,0.0,0.0,0.0006,0.0,0.0,0.0,0.0006,-2.6384102294921874,1.3192051147460937,8.427589843749999,0.01,0.0,0.0,0.0,0.01,0.0,0.0,0.0,0.01
1573857274.8535986,58804,677,664318040,/os1_imu,0.0,0.0,0.0,0.0,-1.0,-1.0,-1.0,-1.0,-1.0,-1.0,-1.0,-1.0,-1.0,-0.007590009106725828,0.0002663161090079238,0.010785802414820914,0.0006,0.0,0.0,0.0,0.0006,0.0,0.0,0.0,0.0006,-2.8658593872070313,1.0414777221679687,8.470685473632813,0.01,0.0,0.0,0.0,0.01,0.0,0.0,0.0,0.01
1573857274.869627,58805,677,674318020,/os1_imu,0.0,0.0,0.0,0.0,-1.0,-1.0,-1.0,-1.0,-1.0,-1.0,-1.0,-1.0,-1.0,-0.005459480234662438,-0.010918960469324876,0.0073236929977179045,0.0006,0.0,0.0,0.0,0.0006,0.0,0.0,0.0,0.0006,-2.8898014038085935,1.218648645019531,8.410830432128906,0.01,0.0,0.0,0.0,0.01,0.0,0.0,0.0,0.01
1573857274.873434,58806,677,684318120,/os1_imu,0.0,0.0,0.0,0.0,-1.0,-1.0,-1.0,-1.0,-1.0,-1.0,-1.0,-1.0,-1.0,-0.009986854087797143,-0.011052118523828838,0.008788431597261486,0.0006,0.0,0.0,0.0,0.0006,0.0,0.0,0.0,0.0006,-2.6719290527343746,1.1348515869140625,8.540117321777343,0.01,0.0,0.0,0.0,0.01,0.0,0.0,0.0,0.01
1573857274.883266,58807,677,694318020,/os1_imu,0.0,0.0,0.0,0.0,-1.0,-1.0,-1.0,-1.0,-1.0,-1.0,-1.0,-1.0,-1.0,-0.00625842856168621,-0.00972053797878922,0.01344896350490015,0.0006,0.0,0.0,0.0,0.0006,0.0,0.0,0.0,0.0006,-2.454056701660156,1.1731588134765625,8.406042028808594,0.01,0.0,0.0,0.0,0.01,0.0,0.0,0.0,0.01
1573857274.8933265,58808,677,704318030,/os1_imu,0.0,0.0,0.0,0.0,-1.0,-1.0,-1.0,-1.0,-1.0,-1.0,-1.0,-1.0,-1.0,-0.0027963191445832,-0.004660531907638666,0.006791060779702058,0.0006,0.0,0.0,0.0,0.0006,0.0,0.0,0.0,0.0006,-2.6240450195312497,1.3120225097656248,8.386888415527343,0.01,0.0,0.0,0.0,0.01,0.0,0.0,0.0,0.01
1573857274.903641,58809,677,714318100,/os1_imu,0.0,0.0,0.0,0.0,-1.0,-1.0,-1.0,-1.0,-1.0,-1.0,-1.0,-1.0,-1.0,-0.004127899689622819,-0.006391586616190171,0.003728425526110933,0.0006,0.0,0.0,0.0,0.0006,0.0,0.0,0.0,0.0006,-2.839523168945312,1.1133037719726562,8.341398583984375,0.01,0.0,0.0,0.0,0.01,0.0,0.0,0.0,0.01
1573857274.9135456,58810,677,724318240,/os1_imu,0.0,0.0,0.0,0.0,-1.0,-1.0,-1.0,-1.0,-1.0,-1.0,-1.0,-1.0,-1.0,-0.006391586616190171,-0.011451592687340723,0.0014647385995435807,0.0006,0.0,0.0,0.0,0.0006,0.0,0.0,0.0,0.0006,-2.7557261108398436,1.1372457885742187,8.36294639892578,0.01,0.0,0.0,0.0,0.01,0.0,0.0,0.0,0.01
1573857274.9235983,58811,677,734318020,/os1_imu,0.0,0.0,0.0,0.0,-1.0,-1.0,-1.0,-1.0,-1.0,-1.0,-1.0,-1.0,-1.0,-0.0031957933080950856,-0.01478054404993977,0.0022636869265673524,0.0006,0.0,0.0,0.0,0.0006,0.0,0.0,0.0,0.0006,-2.693476867675781,1.2497732666015624,8.32463917236328,0.01,0.0,0.0,0.0,0.01,0.0,0.0,0.0,0.01
1573857274.9333456,58812,677,744317990,/os1_imu,0.0,0.0,0.0,0.0,-1.0,-1.0,-1.0,-1.0,-1.0,-1.0,-1.0,-1.0,-1.0,-0.005326322180158476,-0.008921589651765448,0.008522115488253561,0.0006,0.0,0.0,0.0,0.0006,0.0,0.0,0.0,0.0006,-2.499546533203125,1.4939818359375,8.252813122558594,0.01,0.0,0.0,0.0,0.01,0.0,0.0,0.0,0.01
1573857274.94339,58813,677,754318020,/os1_imu,0.0,0.0,0.0,0.0,-1.0,-1.0,-1.0,-1.0,-1.0,-1.0,-1.0,-1.0,-1.0,-0.0014647385995435807,-0.002530003035575276,0.008655273542757524,0.0006,0.0,0.0,0.0,0.0006,0.0,0.0,0.0,0.0006,-2.422932080078125,1.16837041015625,8.456320263671875,0.01,0.0,0.0,0.0,0.01,0.0,0.0,0.0,0.01
1573857274.954074,58814,677,764318400,/os1_imu,0.0,0.0,0.0,0.0,-1.0,-1.0,-1.0,-1.0,-1.0,-1.0,-1.0,-1.0,-1.0,0.0019973708175594286,-0.001331580545039619,0.005193164125654515,0.0006,0.0,0.0,0.0,0.0006,0.0,0.0,0.0,0.0006,-2.8107927490234372,1.2210428466796874,8.271966735839843,0.01,0.0,0.0,0.0,0.01,0.0,0.0,0.0,0.01
1573857274.9816685,58815,677,774318250,/os1_imu,0.0,0.0,0.0,0.0,-1.0,-1.0,-1.0,-1.0,-1.0,-1.0,-1.0,-1.0,-1.0,0.0003994741635118857,-0.0029294771990871615,0.0014647385995435807,0.0006,0.0,0.0,0.0,0.0006,0.0,0.0,0.0,0.0006,-2.8754361938476563,1.2521674682617188,8.420407238769531,0.01,0.0,0.0,0.0,0.01,0.0,0.0,0.0,0.01
1573857274.9817107,58816,677,784318110,/os1_imu,0.0,0.0,0.0,0.0,-1.0,-1.0,-1.0,-1.0,-1.0,-1.0,-1.0,-1.0,-1.0,-0.0,-0.013315805450396189,0.0035952674716069714,0.0006,0.0,0.0,0.0,0.0006,0.0,0.0,0.0,0.0006,-2.6862942626953124,1.2497732666015624,8.473079675292968,0.01,0.0,0.0,0.0,0.01,0.0,0.0,0.0,0.01
1573857274.983823,58817,677,794318020,/os1_imu,0.0,0.0,0.0,0.0,-1.0,-1.0,-1.0,-1.0,-1.0,-1.0,-1.0,-1.0,-1.0,-0.0002663161090079238,-0.014114753777419962,0.006391586616190171,0.0006,0.0,0.0,0.0,0.0006,0.0,0.0,0.0,0.0006,-2.5713725830078125,1.2210428466796874,8.432378247070313,0.01,0.0,0.0,0.0,0.01,0.0,0.0,0.0,0.01
1573857274.9938407,58818,677,804318320,/os1_imu,0.0,0.0,0.0,0.0,-1.0,-1.0,-1.0,-1.0,-1.0,-1.0,-1.0,-1.0,-1.0,0.007856325215733753,-0.015313176267955617,0.005725796343670361,0.0006,0.0,0.0,0.0,0.0006,0.0,0.0,0.0,0.0006,-2.518700146484375,1.369483349609375,8.305485559082031,0.01,0.0,0.0,0.0,0.01,0.0,0.0,0.0,0.01
1573857275.0035748,58819,677,814318070,/os1_imu,0.0,0.0,0.0,0.0,-1.0,-1.0,-1.0,-1.0,-1.0,-1.0,-1.0,-1.0,-1.0,0.008655273542757524,-0.007057376888709981,-0.0014647385995435807,0.0006,0.0,0.0,0.0,0.0006,0.0,0.0,0.0,0.0006,-2.559401574707031,1.2737152832031249,8.245630517578125,0.01,0.0,0.0,0.0,0.01,0.0,0.0,0.0,0.01
1573857275.0135589,58820,677,824318060,/os1_imu,0.0,0.0,0.0,0.0,-1.0,-1.0,-1.0,-1.0,-1.0,-1.0,-1.0,-1.0,-1.0,0.007723167161229791,-0.007590009106725828,-0.0003994741635118857,0.0006,0.0,0.0,0.0,0.0006,0.0,0.0,0.0,0.0006,-2.4971523315429685,1.1013327636718748,8.456320263671875,0.01,0.0,0.0,0.0,0.01,0.0,0.0,0.0,0.01
1573857275.0241382,58821,677,834317980,/os1_imu,0.0,0.0,0.0,0.0,-1.0,-1.0,-1.0,-1.0,-1.0,-1.0,-1.0,-1.0,-1.0,0.00692421883420602,-0.0027963191445832,-0.0031957933080950856,0.0006,0.0,0.0,0.0,0.0006,0.0,0.0,0.0,0.0006,-2.626439221191406,1.2928688964843749,8.413224633789062,0.01,0.0,0.0,0.0,0.01,0.0,0.0,0.0,0.01
1573857275.033803,58822,677,844318360,/os1_imu,0.0,0.0,0.0,0.0,-1.0,-1.0,-1.0,-1.0,-1.0,-1.0,-1.0,-1.0,-1.0,0.005858954398174323,-0.004527373853134705,0.003994741635118857,0.0006,0.0,0.0,0.0,0.0006,0.0,0.0,0.0,0.0006,-2.5570073730468748,1.2330138549804688,8.413224633789062,0.01,0.0,0.0,0.0,0.01,0.0,0.0,0.0,0.01
1573857275.043908,58823,677,854318020,/os1_imu,0.0,0.0,0.0,0.0,-1.0,-1.0,-1.0,-1.0,-1.0,-1.0,-1.0,-1.0,-1.0,0.008921589651765448,-0.0019973708175594286,0.005326322180158476,0.0006,0.0,0.0,0.0,0.0006,0.0,0.0,0.0,0.0006,-2.530671154785156,1.1372457885742187,8.44674345703125,0.01,0.0,0.0,0.0,0.01,0.0,0.0,0.0,0.01
1573857275.0540311,58824,677,864317990,/os1_imu,0.0,0.0,0.0,0.0,-1.0,-1.0,-1.0,-1.0,-1.0,-1.0,-1.0,-1.0,-1.0,0.013049489341388266,-0.007456851052221866,0.007190534943213943,0.0006,0.0,0.0,0.0,0.0006,0.0,0.0,0.0,0.0006,-2.729389892578125,1.3072341064453123,8.350975390624999,0.01,0.0,0.0,0.0,0.01,0.0,0.0,0.0,0.01
1573857275.081232,58825,677,874318100,/os1_imu,0.0,0.0,0.0,0.0,-1.0,-1.0,-1.0,-1.0,-1.0,-1.0,-1.0,-1.0,-1.0,0.008522115488253561,-0.00905474770626941,-0.0007989483270237714,0.0006,0.0,0.0,0.0,0.0006,0.0,0.0,0.0,0.0006,-2.710236279296875,1.177947216796875,8.437166650390624,0.01,0.0,0.0,0.0,0.01,0.0,0.0,0.0,0.01
1573857275.081257,58826,677,884318020,/os1_imu,0.0,0.0,0.0,0.0,-1.0,-1.0,-1.0,-1.0,-1.0,-1.0,-1.0,-1.0,-1.0,0.005326322180158476,-0.006391586616190171,0.004394215798630743,0.0006,0.0,0.0,0.0,0.0006,0.0,0.0,0.0,0.0006,-2.5450363647460934,1.13006318359375,8.47786807861328,0.01,0.0,0.0,0.0,0.01,0.0,0.0,0.0,0.01
1573857275.083484,58827,677,894318000,/os1_imu,0.0,0.0,0.0,0.0,-1.0,-1.0,-1.0,-1.0,-1.0,-1.0,-1.0,-1.0,-1.0,0.010253170196805066,0.005459480234662438,0.004660531907638666,0.0006,0.0,0.0,0.0,0.0006,0.0,0.0,0.0,0.0006,-2.4444798950195312,1.2880804931640624,8.441955053710936,0.01,0.0,0.0,0.0,0.01,0.0,0.0,0.0,0.01
1573857275.0936532,58828,677,904318060,/os1_imu,0.0,0.0,0.0,0.0,-1.0,-1.0,-1.0,-1.0,-1.0,-1.0,-1.0,-1.0,-1.0,0.009853696033293181,0.002530003035575276,0.008522115488253561,0.0006,0.0,0.0,0.0,0.0006,0.0,0.0,0.0,0.0006,-2.6048914062499997,1.3096283081054687,8.525752111816406,0.01,0.0,0.0,0.0,0.01,0.0,0.0,0.0,0.01
1573857275.103444,58829,677,914317990,/os1_imu,0.0,0.0,0.0,0.0,-1.0,-1.0,-1.0,-1.0,-1.0,-1.0,-1.0,-1.0,-1.0,0.012117382959860534,-0.007057376888709981,0.004660531907638666,0.0006,0.0,0.0,0.0,0.0006,0.0,0.0,0.0,0.0006,-2.8514941772460936,1.235408056640625,8.425195642089843,0.01,0.0,0.0,0.0,0.01,0.0,0.0,0.0,0.01
1573857275.113656,58830,677,924318040,/os1_imu,0.0,0.0,0.0,0.0,-1.0,-1.0,-1.0,-1.0,-1.0,-1.0,-1.0,-1.0,-1.0,0.008122641324741676,-0.012916331286884304,0.006125270507182248,0.0006,0.0,0.0,0.0,0.0006,0.0,0.0,0.0,0.0006,-2.645592834472656,1.2617442749023438,8.425195642089843,0.01,0.0,0.0,0.0,0.01,0.0,0.0,0.0,0.01
1573857275.1237078,58831,677,934318250,/os1_imu,0.0,0.0,0.0,0.0,-1.0,-1.0,-1.0,-1.0,-1.0,-1.0,-1.0,-1.0,-1.0,0.008655273542757524,-0.0111852765783328,0.002663161090079238,0.0006,0.0,0.0,0.0,0.0006,0.0,0.0,0.0,0.0006,-2.4756045166015626,1.4125789794921875,8.542511523437499,0.01,0.0,0.0,0.0,0.01,0.0,0.0,0.0,0.01
1573857275.1335144,58832,677,944318400,/os1_imu,0.0,0.0,0.0,0.0,-1.0,-1.0,-1.0,-1.0,-1.0,-1.0,-1.0,-1.0,-1.0,0.009853696033293181,0.00346210941710301,0.011318434632836761,0.0006,0.0,0.0,0.0,0.0006,0.0,0.0,0.0,0.0006,-2.4061726684570313,1.4341267944335936,8.415618835449218,0.01,0.0,0.0,0.0,0.01,0.0,0.0,0.0,0.01
1573857275.1434457,58833,677,954318400,/os1_imu,0.0,0.0,0.0,0.0,-1.0,-1.0,-1.0,-1.0,-1.0,-1.0,-1.0,-1.0,-1.0,0.0042610577441267805,0.007723167161229791,0.010519486305812991,0.0006,0.0,0.0,0.0,0.0006,0.0,0.0,0.0,0.0006,-2.511517541503906,1.4125789794921875,8.52335791015625,0.01,0.0,0.0,0.0,0.01,0.0,0.0,0.0,0.01
1573857275.1534564,58834,677,964317990,/os1_imu,0.0,0.0,0.0,0.0,-1.0,-1.0,-1.0,-1.0,-1.0,-1.0,-1.0,-1.0,-1.0,0.01038632825130903,-0.0022636869265673524,0.009986854087797143,0.0006,0.0,0.0,0.0,0.0006,0.0,0.0,0.0,0.0006,-2.849099975585937,1.66636435546875,8.429984045410155,0.01,0.0,0.0,0.0,0.01,0.0,0.0,0.0,0.01
1573857275.1789806,58835,677,974318230,/os1_imu,0.0,0.0,0.0,0.0,-1.0,-1.0,-1.0,-1.0,-1.0,-1.0,-1.0,-1.0,-1.0,0.003062635253591124,-0.008788431597261486,0.007989483270237714,0.0006,0.0,0.0,0.0,0.0006,0.0,0.0,0.0,0.0006,-2.7054478759765623,1.637633935546875,8.470685473632813,0.01,0.0,0.0,0.0,0.01,0.0,0.0,0.0,0.01
1573857275.179234,58836,677,984318400,/os1_imu,0.0,0.0,0.0,0.0,-1.0,-1.0,-1.0,-1.0,-1.0,-1.0,-1.0,-1.0,-1.0,0.00905474770626941,-0.015313176267955617,0.0073236929977179045,0.0006,0.0,0.0,0.0,0.0006,0.0,0.0,0.0,0.0006,-2.6623522460937497,1.4987702392578124,8.386888415527343,0.01,0.0,0.0,0.0,0.01,0.0,0.0,0.0,0.01
1573857275.1836445,58837,677,994318020,/os1_imu,0.0,0.0,0.0,0.0,-1.0,-1.0,-1.0,-1.0,-1.0,-1.0,-1.0,-1.0,-1.0,0.007456851052221866,-0.005725796343670361,0.009454221869781294,0.0006,0.0,0.0,0.0,0.0006,0.0,0.0,0.0,0.0006,-2.403778466796875,1.7262193969726563,8.343792785644531,0.01,0.0,0.0,0.0,0.01,0.0,0.0,0.0,0.01
1573857275.1934047,58838,678,4318390,/os1_imu,0.0,0.0,0.0,0.0,-1.0,-1.0,-1.0,-1.0,-1.0,-1.0,-1.0,-1.0,-1.0,0.008788431597261486,-0.012383699068868458,0.009454221869781294,0.0006,0.0,0.0,0.0,0.0006,0.0,0.0,0.0,0.0006,-2.5258827514648434,1.6256629272460936,8.449137658691406,0.01,0.0,0.0,0.0,0.01,0.0,0.0,0.0,0.01
1573857275.2034435,58839,678,14318260,/os1_imu,0.0,0.0,0.0,0.0,-1.0,-1.0,-1.0,-1.0,-1.0,-1.0,-1.0,-1.0,-1.0,0.005725796343670361,-0.010253170196805066,0.011052118523828838,0.0006,0.0,0.0,0.0,0.0006,0.0,0.0,0.0,0.0006,-2.5450363647460934,1.5490484741210937,8.382100012207031,0.01,0.0,0.0,0.0,0.01,0.0,0.0,0.0,0.01
1573857275.2135284,58840,678,24318390,/os1_imu,0.0,0.0,0.0,0.0,-1.0,-1.0,-1.0,-1.0,-1.0,-1.0,-1.0,-1.0,-1.0,0.005858954398174323,-0.008255799379245638,0.009853696033293181,0.0006,0.0,0.0,0.0,0.0006,0.0,0.0,0.0,0.0006,-2.6048914062499997,1.6400281372070311,8.379705810546875,0.01,0.0,0.0,0.0,0.01,0.0,0.0,0.0,0.01
1573857275.2236843,58841,678,34318030,/os1_imu,0.0,0.0,0.0,0.0,-1.0,-1.0,-1.0,-1.0,-1.0,-1.0,-1.0,-1.0,-1.0,0.0019973708175594286,-0.004127899689622819,0.009454221869781294,0.0006,0.0,0.0,0.0,0.0006,0.0,0.0,0.0,0.0006,-2.607285607910156,1.6041151123046875,8.329427575683594,0.01,0.0,0.0,0.0,0.01,0.0,0.0,0.0,0.01
1573857275.2334788,58842,678,44318390,/os1_imu,0.0,0.0,0.0,0.0,-1.0,-1.0,-1.0,-1.0,-1.0,-1.0,-1.0,-1.0,-1.0,0.0021305288720633903,-0.0018642127630554665,0.014114753777419962,0.0006,0.0,0.0,0.0,0.0006,0.0,0.0,0.0,0.0006,-2.6479870361328124,1.5394716674804687,8.365340600585936,0.01,0.0,0.0,0.0,0.01,0.0,0.0,0.0,0.01
1573857275.2438405,58843,678,54317970,/os1_imu,0.0,0.0,0.0,0.0,-1.0,-1.0,-1.0,-1.0,-1.0,-1.0,-1.0,-1.0,-1.0,0.005060006071150552,-0.009454221869781294,0.014247911831923924,0.0006,0.0,0.0,0.0,0.0006,0.0,0.0,0.0,0.0006,-2.3678654418945313,1.599326708984375,8.25520732421875,0.01,0.0,0.0,0.0,0.01,0.0,0.0,0.0,0.01
1573857275.2535172,58844,678,64318110,/os1_imu,0.0,0.0,0.0,0.0,-1.0,-1.0,-1.0,-1.0,-1.0,-1.0,-1.0,-1.0,-1.0,0.0066579027251980945,-0.010120012142301104,0.012117382959860534,0.0006,0.0,0.0,0.0,0.0006,0.0,0.0,0.0,0.0006,-2.602497204589844,1.5203180541992187,8.463502868652343,0.01,0.0,0.0,0.0,0.01,0.0,0.0,0.0,0.01
1573857275.2834282,58845,678,74318020,/os1_imu,0.0,0.0,0.0,0.0,-1.0,-1.0,-1.0,-1.0,-1.0,-1.0,-1.0,-1.0,-1.0,0.001731054708551505,-0.005725796343670361,0.007723167161229791,0.0006,0.0,0.0,0.0,0.0006,0.0,0.0,0.0,0.0006,-2.5546131713867184,1.5035586425781249,8.379705810546875,0.01,0.0,0.0,0.0,0.01,0.0,0.0,0.0,0.01
1573857275.2834594,58846,678,84318150,/os1_imu,0.0,0.0,0.0,0.0,-1.0,-1.0,-1.0,-1.0,-1.0,-1.0,-1.0,-1.0,-1.0,-0.002530003035575276,-0.0021305288720633903,0.0073236929977179045,0.0006,0.0,0.0,0.0,0.0006,0.0,0.0,0.0,0.0006,-2.7054478759765623,1.3192051147460937,8.374917407226562,0.01,0.0,0.0,0.0,0.01,0.0,0.0,0.0,0.01
1573857275.2840705,58847,678,94318020,/os1_imu,0.0,0.0,0.0,0.0,-1.0,-1.0,-1.0,-1.0,-1.0,-1.0,-1.0,-1.0,-1.0,-0.0033289513625990473,0.0033289513625990473,0.014247911831923924,0.0006,0.0,0.0,0.0,0.0006,0.0,0.0,0.0,0.0006,-2.5546131713867184,1.5777788940429687,8.511386901855468,0.01,0.0,0.0,0.0,0.01,0.0,0.0,0.0,0.01
